Character,Acc,Ntrials,RT,SE,SD,Z(RT)
啊,1,34,583.6470588,24.50035041,142.8603646,-0.2664552
哎,1,33,568.3333333,16.51988395,94.89950825,-0.3471487
哀,1,35,578.5714286,22.4827585,133.009793,-0.2870977
唉,0.942857143,33,688.0606061,40.48397877,232.5627522,0.19413077
埃,0.857142857,30,720.1666667,31.14884855,170.6092699,0.27342404
挨,0.885714286,29,681.6206897,39.59625094,213.232337,0.12153992
癌,0.971428571,33,598.030303,16.42063586,94.32937137,-0.1770385
矮,1,35,601.1142857,22.61741619,133.8064387,-0.1983189
蔼,0.942857143,32,690.46875,23.94920635,135.4771697,0.22154876
艾,1,33,593.6969697,24.26633645,139.39949,-0.1989718
隘,1,32,723.1875,33.42168378,189.0615939,0.33242962
爱,1,34,497.0588235,20.1484217,117.4844777,-0.6742627
碍,0.8,27,675.2592593,37.70641548,195.9282821,0.11119963
安,1,35,512.1428571,22.25615363,131.6691806,-0.587495
鞍,0.914285714,32,655.9375,29.1936643,165.144304,0.04049434
谙,0.742857143,23,827.0869565,37.70878181,180.8449645,0.80909706
岸,1,35,520.2857143,15.69454069,92.85015488,-0.5550447
按,1,33,553.2727273,25.30478129,145.3649014,-0.4175432
暗,0.857142857,26,711.4230769,32.97043772,168.1169053,0.35425679
昂,0.971428571,34,575.1764706,25.92431981,151.1634617,-0.3186145
凹,0.885714286,30,761.5666667,30.49362788,167.0204785,0.58482628
遨,1,34,606.4117647,30.51936405,177.9569437,-0.2189828
奥,1,34,529.5588235,18.66116824,108.8123743,-0.516596
澳,0.885714286,27,609.5185185,33.37020911,173.3966929,-0.1859909
懊,0.857142857,29,641.3103448,18.34233195,98.77648052,0.04500694
巴,0.971428571,34,537.6764706,18.74182986,109.2827083,-0.4791915
叭,0.714285714,22,721.4090909,46.66629526,218.8843267,0.32505848
扒,1,35,609.4285714,19.1526502,113.3086066,-0.0978348
吧,0.942857143,31,611.2580645,30.71688155,171.0243584,-0.1206952
疤,1,33,633.1515152,24.85423876,142.7767316,-0.0448934
笆,0.885714286,28,630.6785714,32.15443281,170.1452655,-0.0433211
拔,1,34,616.6470588,26.29107879,153.3020157,-0.1177486
跋,0.914285714,29,752.9310345,37.43970295,201.6189707,0.46637209
爸,1,35,538.8571429,21.22742569,125.583144,-0.4550338
罢,1,34,547.2352941,19.64135016,114.5277679,-0.4472255
霸,0.971428571,31,624.7096774,33.40984317,186.0181342,-0.1160893
百,1,32,463.3125,10.67645864,60.39517044,-0.8232154
拜,1,35,517.4571429,11.42202964,67.57363864,-0.5521711
败,0.942857143,33,579,31.29300072,179.764603,-0.3290325
班,0.971428571,34,591.8823529,24.03539297,140.1492202,-0.2340354
般,0.971428571,34,471.7941176,13.95745888,81.38527132,-0.7803131
斑,0.942857143,33,617.4242424,20.50651367,117.8009524,-0.1254851
搬,1,33,632.1818182,27.96664865,160.6561652,-0.1051171
颁,0.857142857,28,707.6071429,23.32036711,123.3997837,0.3659772
阪,0.628571429,19,852.1052632,59.74868883,260.4384966,0.8119047
板,1,35,630.9142857,19.07954915,112.876135,-0.0065782
半,1,35,537.4285714,18.49207351,109.4005822,-0.4726746
伴,1,34,552.2941176,16.71596254,97.46997344,-0.4012586
扮,0.971428571,34,556.3529412,18.3508043,107.0026571,-0.3634708
办,0.971428571,34,542.4705882,32.52127331,189.6299803,-0.5024593
邦,1,35,541.0857143,15.46524276,91.49361001,-0.4632165
帮,1,35,575.7714286,25.27592556,149.5343922,-0.3015836
榜,0.942857143,31,606.5483871,19.0618032,106.1316286,-0.1555429
蚌,0.885714286,31,820.3548387,50.60761021,281.7712486,0.68157437
傍,0.942857143,32,593.03125,37.76627198,213.6382961,-0.2642932
棒,1,34,575.4705882,22.92288223,133.6622236,-0.2413657
谤,1,31,658.1935484,33.28050931,185.2980337,0.09437569
镑,0.742857143,19,625.1578947,40.08691312,174.7348032,-0.0027617
包,1,35,480.4,18.49874854,109.4400722,-0.7229413
苞,0.942857143,33,637.7878788,18.03892874,103.6257562,-0.0207067
胞,1,35,607.2857143,35.31625596,208.9337879,-0.2265945
剥,1,35,608.7428571,33.35730535,197.3444798,-0.1849498
煲,0.828571429,25,657.04,29.11325471,145.5662736,0.15574343
保,0.971428571,34,553.5294118,32.2404689,187.9926232,-0.4341665
堡,1,35,604.2285714,22.80671749,134.9263602,-0.1347931
饱,1,34,575.0294118,27.42724894,159.9269692,-0.3347437
宝,1,35,545.9428571,22.22678915,131.495458,-0.4815078
抱,0.971428571,34,555.9117647,28.24218434,164.6788183,-0.3913213
豹,0.971428571,34,635.2352941,30.48181302,177.7379854,-0.0578183
报,0.971428571,33,514.2424242,20.13994741,115.6951896,-0.5616411
暴,0.971428571,33,557.6969697,21.04848681,120.9143511,-0.3486629
爆,1,35,580.4857143,24.17622179,143.0284569,-0.2774342
卑,0.971428571,33,661.8787879,29.94267748,172.0075866,0.06862458
杯,0.914285714,32,572.5625,27.80599326,157.2944511,-0.2881752
碑,1,33,599.6060606,23.43911113,134.6474423,-0.1584506
北,1,35,521.7142857,20.73622136,122.67714,-0.5624081
背,0.942857143,33,535.6060606,16.05193627,92.21135349,-0.488455
被,1,33,586.4242424,25.53310501,146.6765213,-0.296127
备,0.971428571,34,562.5,24.1745454,140.9606113,-0.3487415
辈,1,35,518.4285714,17.77904941,105.1822748,-0.5481952
奔,1,34,523.2941176,15.88778213,92.64089332,-0.5231432
本,0.971428571,33,459.9090909,16.07294944,92.332065,-0.8245746
畚,0.114285714,4,795,158.0606424,316.1212847,0.80199319
笨,1,35,518.4857143,24.3339294,143.9614678,-0.5806318
崩,0.971428571,34,577.9705882,18.11167995,105.6083345,-0.3085894
绷,0.8,25,776.48,44.62798524,223.1399262,0.52447924
蹦,1,35,601.7714286,23.3544873,138.1670101,-0.199335
逼,1,34,594.0882353,25.7201575,149.9730011,-0.1990993
笔,1,35,524.9142857,12.88040473,76.201502,-0.5157492
必,1,34,540.0294118,16.52543469,96.3590147,-0.4355796
庇,0.914285714,32,727.28125,26.822604,151.7315614,0.42550408
毕,1,35,546.2,18.8000894,111.2228288,-0.455993
敝,0.914285714,31,589.2580645,19.67198585,109.5289818,-0.2731128
闭,1,35,490.2571429,11.36191063,67.21796979,-0.6616056
辟,0.971428571,33,562.6060606,12.51801273,71.91050836,-0.3456885
币,1,34,539.3823529,18.53613394,108.0833053,-0.4587564
碧,1,33,589.2121212,23.92241079,137.4237874,-0.2395323
蔽,0.971428571,32,686.53125,40.87813775,231.2416672,0.15872397
臂,0.942857143,33,656.2121212,28.06066742,161.1962619,0.07239606
砭,0.542857143,17,785.1176471,28.5816532,117.8451751,0.67493959
编,0.971428571,33,605.4242424,23.08831161,132.6322525,-0.1758904
边,0.942857143,33,566.4242424,22.13337799,127.1465764,-0.2830029
鞭,0.971428571,32,632.21875,26.39937279,149.3374042,-0.0585348
扁,1,35,547.8571429,26.85438927,158.8727095,-0.4369566
贬,1,35,560.8,22.26350218,131.7126552,-0.3518393
便,1,35,532.7714286,22.91709889,135.5793854,-0.5289639
遍,0.942857143,33,525.7272727,15.45296338,88.77051619,-0.4872665
辫,1,34,670.7941176,30.91128642,180.2422241,0.08745571
辩,0.971428571,34,610.2352941,25.3509435,147.8201321,-0.1573015
变,1,35,510.7714286,11.95721263,70.73982393,-0.5646573
标,1,35,547.8857143,21.85685945,129.3069243,-0.4481683
表,1,35,526.6857143,25.74522135,152.3107836,-0.5716203
别,0.971428571,34,585.8529412,36.37897505,212.1240535,-0.3005295
彬,1,34,593.4411765,16.99644459,99.10545078,-0.1932065
缤,0.971428571,31,675.4193548,38.92912706,216.7482063,0.10972235
摈,0.314285714,10,934.8,63.61600078,201.1714581,1.2090844
冰,0.971428571,34,636.7352941,34.58501909,201.6635826,-0.0313855
兵,1,35,523.9428571,19.55474723,115.6874448,-0.5370765
槟,0.942857143,32,683.78125,30.22071811,170.9541977,0.24913451
丙,1,34,613.5588235,22.88092836,133.4175926,-0.1514502
秉,0.971428571,33,633.0606061,25.26495729,145.1361299,-0.1072661
柄,0.971428571,33,640.0606061,25.17047706,144.5933823,-0.0336123
炳,0.885714286,30,635.0333333,33.80340333,185.1488652,-0.0433385
饼,1,35,554.3142857,24.12745469,142.7399469,-0.4300341
并,1,33,552.8181818,25.5698114,146.8873834,-0.3967405
病,0.971428571,34,549.0882353,21.62850201,126.1147548,-0.4285573
波,0.942857143,33,573.7575758,21.61960347,124.1951665,-0.3003481
拨,1,35,573.4571429,19.55295945,115.6768681,-0.2854352
播,1,33,604.3939394,19.47419327,111.8707232,-0.177063
伯,0.942857143,33,570.3333333,21.57692663,123.9500067,-0.3616816
帛,0.942857143,32,793.03125,36.18663774,204.7025355,0.6203071
博,0.914285714,30,653.8666667,26.97711816,147.7597615,0.01311361
搏,0.971428571,33,601.3030303,28.97453443,166.4460282,-0.1910767
驳,0.942857143,30,677.5333333,25.68897672,140.7043203,0.18222992
薄,1,35,521.6,21.03131718,124.4229504,-0.5624742
礡,0.342857143,9,793.2222222,84.14137867,252.424136,0.68170034
跛,0.971428571,28,664.1071429,34.93286605,184.8473523,0.10946961
簸,0.942857143,32,674,28.05434674,158.6993506,0.10981831
哺,0.942857143,32,662.90625,30.19758053,170.8233117,0.04806637
不,1,34,533.7352941,23.29269349,135.8185753,-0.5003364
步,1,35,491.6571429,23.91230276,141.4670909,-0.6898921
怖,0.885714286,29,687.1724138,46.97080293,252.9455149,0.12968301
部,1,33,569.9090909,36.1809521,207.8437459,-0.3636873
埠,0.714285714,24,747.0416667,26.96619456,132.106834,0.51071069
簿,1,34,608.2647059,27.10809907,158.0660217,-0.1675251
擦,1,33,586.0909091,31.26521943,179.6050117,-0.2866058
猜,1,35,542.9428571,16.54359877,97.87325022,-0.4294799
才,1,35,552.8,31.07934546,183.8678874,-0.3957388
材,1,34,501.4705882,20.14878859,117.486617,-0.6799301
裁,0.971428571,33,702.0909091,38.6290724,221.9071264,0.20022502
采,1,34,538.3235294,23.15535845,135.0177812,-0.4850856
彩,1,34,538.9117647,28.70398333,167.371546,-0.5023506
菜,1,35,527.9428571,13.74081468,81.29175592,-0.5213728
参,1,35,510.4285714,22.98275882,135.9678348,-0.6086326
餐,0.971428571,34,620.2647059,33.64609003,196.1887324,-0.0599779
残,1,35,627.5142857,26.42510811,156.3330478,-0.0940409
蚕,1,35,516.7714286,15.07444193,89.18160115,-0.5133012
惨,1,34,565.3235294,37.85069459,220.7055794,-0.4086792
灿,1,34,656.6470588,34.54950419,201.4564969,0.02970158
仓,0.971428571,34,588.9411765,17.87947075,104.2543339,-0.2083287
苍,0.971428571,34,584.1470588,26.97579731,157.2945764,-0.3024184
藏,1,33,609.1818182,26.86320053,154.3173383,-0.1044412
操,0.942857143,32,560.1875,19.98661031,113.0613415,-0.3752546
曹,0.971428571,34,554.2352941,15.27683104,89.07846688,-0.4100876
嘈,0.742857143,25,706,23.79180531,118.9590266,0.35710377
槽,0.971428571,33,760.4242424,36.3860048,209.021684,0.49883138
册,1,35,566.2285714,18.85696206,111.559292,-0.312376
厕,1,35,565.4857143,21.87813349,129.4327832,-0.33215
策,0.971428571,34,584.0294118,23.60237629,137.6243207,-0.2735583
层,0.971428571,33,518.0606061,22.19579452,127.5051321,-0.5660342
叉,0.971428571,34,600.9411765,36.22299083,211.214517,-0.2354619
插,0.942857143,32,620.125,29.48919123,166.8160567,-0.1069218
查,1,35,512.4,13.7675297,81.4498041,-0.5893854
茶,1,35,573.7714286,20.03254016,118.5141058,-0.3185564
察,1,34,546.7058824,20.26502345,118.1643769,-0.4475935
岔,0.857142857,30,672.7333333,33.85890037,185.452835,0.1092524
刹,1,33,597.030303,28.70699962,164.9091577,-0.1908986
差,1,35,510.0571429,19.03110867,112.5895573,-0.6264546
诧,0.914285714,29,669.0689655,19.44114087,104.6937476,0.132823
拆,1,34,604.3529412,31.5371462,183.8915824,-0.181778
柴,1,33,558.4848485,28.03677648,161.0590189,-0.4066192
缠,1,35,546.1428571,31.8188978,188.243138,-0.4703225
产,0.971428571,31,632.6774194,37.45567666,208.5443817,-0.0892863
阐,0.857142857,28,679.8571429,26.22741983,138.7824608,0.18704682
昌,0.971428571,33,549.8181818,17.61361681,101.1825252,-0.411494
娼,0.942857143,33,722.7878788,31.50041358,180.9560992,0.33547664
偿,1,34,621.3235294,23.33384468,136.0585259,-0.1288152
场,1,34,589.0588235,24.6619187,143.8024616,-0.2328591
敞,1,35,606.0571429,35.25517884,208.5724508,-0.1691597
倡,1,34,640.5294118,24.79215689,144.5618742,0.00650738
唱,0.971428571,33,587.6363636,22.77985962,130.8603306,-0.2356569
怅,0.971428571,34,719.2941176,30.29476489,176.6473167,0.31626926
抄,1,35,530.7714286,23.91255378,141.468576,-0.5561576
钞,0.942857143,32,618.46875,36.35158138,205.6355976,-0.1529021
巢,0.971428571,34,675.1176471,25.2645103,147.3161442,0.1650315
朝,1,34,502.2941176,19.2629117,112.3211115,-0.6660253
潮,1,33,628.6666667,35.00610517,201.0947641,-0.1115222
炒,1,35,570.9428571,22.29628385,131.9065941,-0.3086122
扯,0.971428571,33,566.7878788,26.59459096,152.7742938,-0.3788104
掣,0.714285714,20,773.65,28.7651356,128.6415972,0.56875073
彻,0.942857143,33,573.0909091,20.92624872,120.2121468,-0.3141994
撤,1,34,568.3823529,28.90934921,168.5690246,-0.3455037
澈,1,34,656.4411765,19.56529318,114.0842834,0.08226425
忱,0.942857143,30,627.3,29.00107608,158.8454356,-0.0381164
沉,0.971428571,34,577.7941176,22.42216799,130.7425829,-0.3251914
陈,0.971428571,33,626.9090909,30.67391312,176.2082155,-0.1101763
晨,1,33,591.7575758,25.70539054,147.6662263,-0.2328639
尘,0.971428571,34,563.0588235,21.70323013,126.5504909,-0.3742964
趁,1,34,532.2647059,13.77779536,80.33766196,-0.4604392
称,0.828571429,27,639.7037037,28.01443537,145.5672762,0.03027552
衬,1,35,592.1142857,17.32316521,102.4852275,-0.2010299
撑,0.971428571,33,587.5151515,21.95937715,126.1470177,-0.2258721
成,1,35,554.7142857,26.42174338,156.3131419,-0.4086458
呈,0.885714286,30,689.8,33.34405804,182.6329275,0.182478
承,1,35,547.3142857,27.09577695,160.3007782,-0.4284206
城,1,34,521.7352941,16.18235592,94.35853893,-0.5114311
乘,1,34,540.2058824,24.21052125,141.1703848,-0.4551923
程,1,35,513.1428571,17.64372638,104.3816929,-0.5853341
惩,0.971428571,32,591.21875,17.78176023,100.5888259,-0.1667419
逞,1,34,637.6470588,25.87471124,150.8741965,0.00540998
秤,0.942857143,32,683.15625,37.67101086,213.0994179,0.15542292
吃,1,34,573.1764706,31.1498154,181.6330751,-0.333946
笞,0.657142857,19,784.1052632,45.02935331,196.2784006,0.79545769
痴,1,35,581.0857143,26.65226972,157.6769541,-0.2774655
弛,0.971428571,34,630.9705882,21.85462768,127.4332827,-0.0326814
池,0.971428571,34,638.4411765,33.62745969,196.0800998,-0.0188317
持,0.971428571,34,601.1176471,19.89422854,116.0022896,-0.1513035
驰,1,35,599.2571429,18.24148669,107.9180906,-0.1759447
迟,1,35,545.4,18.06892499,106.8972019,-0.4231707
尺,1,35,501.4,21.61921026,127.9009727,-0.6214596
侈,0.971428571,32,644.15625,43.19535774,244.349843,-0.0829897
耻,1,35,522.3714286,14.79961876,87.55572535,-0.572159
褫,0.114285714,3,1249.666667,106.8976665,185.1521897,1.7827627
斥,0.971428571,34,642.2352941,30.06552733,175.3106436,0.03140797
翅,0.971428571,34,538.1470588,24.12179924,140.653051,-0.4726506
炽,1,33,659.6060606,24.28671617,139.5165625,0.08806693
充,0.971428571,34,540.5882353,16.83876129,98.18600704,-0.4491235
冲,1,35,511.6285714,17.35613546,102.6802821,-0.6041322
憧,0.914285714,32,570.6875,28.09457808,158.9269334,-0.3388274
崇,0.971428571,32,611.9375,31.56256388,178.5448236,-0.1818503
宠,0.971428571,32,568.84375,20.36076385,115.1778735,-0.3301055
抽,1,35,524.7142857,23.83002031,140.9803014,-0.550707
惆,0.971428571,32,670.40625,29.44006553,166.5381598,0.10661755
稠,0.942857143,30,685.3,30.37562354,166.3741421,0.15673006
绸,1,34,599.8235294,25.88210177,150.9172903,-0.1790488
丑,1,35,489.4857143,11.92443797,70.5459264,-0.6886703
臭,0.971428571,33,567.3030303,26.2677604,150.8967952,-0.3900994
出,1,35,492.6285714,14.42389973,85.33294161,-0.6778002
初,0.914285714,31,622,21.65462031,120.5678232,-0.064459
除,0.971428571,33,546.030303,24.11955249,138.5562803,-0.5088417
厨,1,31,607.5483871,42.98744099,239.343942,-0.2225069
橱,0.685714286,22,592.7727273,47.17311454,221.2615199,-0.2821789
础,0.771428571,27,656.037037,32.25421996,167.5978432,-0.0062725
绌,0.828571429,28,738.0714286,27.15090733,143.6690973,0.46538647
处,0.971428571,33,563.1212121,25.53517173,146.6883937,-0.3800665
触,1,34,589.3235294,21.85374006,127.428107,-0.2437151
矗,0.657142857,18,832.6111111,42.55785289,180.5576782,0.7624393
啜,0.771428571,24,701.5,43.23205835,211.792967,0.27047209
川,1,34,509.5,19.80278208,115.4690697,-0.6198539
穿,1,35,532.5142857,24.32180512,143.8897395,-0.4951978
船,1,35,541.3428571,35.64208029,210.8613906,-0.4599165
传,1,35,589.2857143,34.99511542,207.0338948,-0.2503836
喘,1,35,613.3428571,33.68793872,199.3005332,-0.1680929
串,1,35,545.0285714,23.30158453,137.8540331,-0.4136039
窗,1,35,530.3142857,13.58983626,80.39855553,-0.5182948
床,1,35,541.4857143,21.6174677,127.8906636,-0.4676978
闯,1,35,616.8285714,30.34259523,179.5092142,-0.1150243
创,1,33,542.9393939,16.89040763,97.02800478,-0.4362338
吹,1,34,537.3529412,30.49709616,177.8271006,-0.4884719
炊,1,35,646.7714286,19.58064924,115.8406831,0.05395328
陲,0.571428571,17,744.4117647,33.17744836,136.794124,0.52725051
捶,0.857142857,30,679.7,26.31725757,144.1455562,0.13564655
春,1,35,512.8,21.83297175,129.1656028,-0.5684441
唇,1,35,555.0285714,19.85250172,117.4489841,-0.4180457
纯,0.971428571,33,516.7575758,17.27430382,99.23332048,-0.5579769
淳,0.971428571,33,657.4242424,24.05470526,138.1837613,0.08330752
蠢,0.885714286,27,684.1111111,43.52588166,226.1671154,0.13005489
戳,0.942857143,33,660.7878788,27.22593313,156.4010785,0.09754409
绰,0.971428571,34,639.3235294,25.99635655,151.5835045,-0.0188295
辍,0.971428571,32,655.40625,32.7542739,185.2861535,0.00780151
龊,0.914285714,31,737.8709677,27.80971216,154.8379243,0.43720714
疵,0.685714286,22,779.5909091,42.34703356,198.6251936,0.60315951
祠,0.942857143,31,714.9354839,37.59901439,209.3424524,0.32503782
瓷,0.971428571,34,625.5882353,18.01802018,105.0622089,-0.070017
词,0.971428571,31,651.8387097,39.49305361,219.8880165,-0.0431868
慈,1,35,604.3142857,31.69499527,187.5101207,-0.2088716
雌,1,33,689.7575758,32.95181371,189.2937582,0.17914811
辞,0.971428571,33,539.5454545,23.68028408,136.0328754,-0.5079501
此,1,35,569,24.18090086,143.0561387,-0.2788531
次,0.942857143,32,545.34375,17.24144303,97.53233025,-0.392374
刺,1,33,563.5151515,25.71434429,147.7176617,-0.3794699
赐,1,35,549.0285714,20.50080899,121.2844216,-0.4175009
匆,1,35,586.0857143,24.01558917,142.0781416,-0.2659944
从,1,35,582.9428571,30.80859704,182.2661181,-0.2730198
葱,0.914285714,32,605.5,28.9060631,163.5173859,-0.1365017
聪,1,35,502.5142857,20.69978977,122.4616078,-0.6382967
丛,0.971428571,34,585.5588235,25.26269086,147.3055351,-0.2806669
凑,1,34,555.2058824,29.66118175,172.952924,-0.4317749
粗,1,34,546.5588235,16.09298909,93.83744525,-0.4495131
醋,1,34,615.8823529,30.96083907,180.5311632,-0.109803
簇,0.914285714,30,727.7666667,29.2063874,159.969972,0.3524218
篡,0.914285714,30,780.2,28.32465317,155.1405147,0.59660773
窜,0.942857143,33,642.1212121,27.31278414,156.8999995,-0.0184685
脆,0.942857143,32,600.375,28.22557287,159.6679518,-0.1431794
瘁,0.685714286,22,799.0909091,45.09431718,211.511096,0.70526948
翠,1,35,608.3428571,32.52719464,192.4334786,-0.1799511
村,1,35,529.9714286,18.92472864,111.9602045,-0.4814981
存,1,35,545.0857143,26.44214777,156.4338559,-0.4398126
搓,1,34,574.2352941,19.06261653,111.1532,-0.2749341
磋,0.942857143,31,619.5483871,20.99702174,116.9064694,-0.0909862
撮,0.657142857,21,824.1428571,46.37817045,212.5314767,0.90738677
蹉,0.971428571,32,605.03125,34.31702543,194.1264112,-0.1623468
厝,0.428571429,12,853.4166667,49.18802181,170.3923058,1.0681629
挫,0.914285714,32,580.8125,21.08849621,119.2945494,-0.2669968
措,1,32,607.03125,33.09579462,187.2180865,-0.2088142
答,1,35,597.2857143,23.99574792,141.9607592,-0.2597619
达,1,34,525.3235294,13.835597,80.67470055,-0.5455053
打,1,34,504.1764706,15.82651437,92.28364397,-0.5785088
呆,1,35,543.2,19.0423588,112.6561139,-0.4217925
代,1,35,482.4285714,14.36945206,85.01082482,-0.7366575
待,0.971428571,33,558.8484848,30.98814904,178.0133635,-0.4350992
带,0.971428571,33,512.5757576,22.56489087,129.6254292,-0.5947393
袋,1,35,618.4571429,38.51522329,227.8591338,-0.1400977
逮,0.942857143,33,590.9090909,27.81160796,159.7655242,-0.1862325
贷,0.942857143,32,600.96875,24.97355393,141.2717547,-0.2146044
丹,0.971428571,33,564.2424242,28.57035542,164.1241966,-0.3878712
耽,1,35,624.2285714,26.11735267,154.5123421,-0.125381
单,1,35,484.8285714,19.275163,114.0334022,-0.7123525
胆,1,34,541.2058824,19.46319619,113.4889607,-0.474568
旦,0.942857143,32,517.6875,16.29722898,92.191049,-0.5476898
淡,1,35,604.7142857,15.86214623,93.84172264,-0.1592879
蛋,0.942857143,33,607,30.24157784,173.7246384,-0.1752383
氮,0.885714286,29,768.4137931,37.80513027,203.5868571,0.57388109
诞,1,31,578.8387097,23.21188502,129.2383062,-0.2823422
弹,1,35,527.7714286,19.22887734,113.7595725,-0.5097679
党,1,34,497.5294118,13.62525149,79.44818601,-0.6377982
荡,1,33,584.1212121,20.62924693,118.5060013,-0.2465058
档,1,35,512.6857143,21.34229916,126.2627446,-0.5768144
叨,0.942857143,33,615.4848485,18.86686415,108.3818831,-0.0974598
岛,1,35,558.0285714,28.29061328,167.3695253,-0.3772835
祷,0.942857143,31,621.9354839,33.12955785,184.4575715,-0.1456282
导,1,35,489.5142857,11.85602506,70.14119014,-0.687035
蹈,0.971428571,33,617.4242424,26.25508718,150.8239931,-0.1132411
悼,1,34,627.9411765,23.48462315,136.9377078,-0.0672511
盗,1,35,529.9714286,19.2212455,113.7144219,-0.493507
道,1,34,548.2058824,21.33414574,124.3983775,-0.4191312
稻,1,35,597.2285714,23.24361612,137.5110874,-0.2059029
得,0.971428571,33,507.2727273,15.73389465,90.38434348,-0.5624917
德,1,34,521.7941176,18.63553136,108.6628869,-0.4969683
的,1,35,620.0571429,35.95489571,212.7120316,-0.156681
登,1,34,542.8823529,17.75851907,103.5490704,-0.4533576
等,0.971428571,34,568.4705882,15.88406276,92.61920584,-0.3388741
凳,0.971428571,34,585.1176471,15.38367104,89.70144579,-0.2109422
低,1,35,547.3428571,18.45320873,109.1706551,-0.4252459
堤,0.942857143,32,601.84375,24.25715347,137.2191817,-0.1182056
滴,1,33,542.0606061,17.41021009,100.0140426,-0.4073188
迪,0.971428571,33,575.1515152,24.48051642,140.6298602,-0.335628
笛,0.971428571,34,586.6764706,17.15618308,100.0368782,-0.2214246
涤,0.828571429,28,771.1428571,31.6065308,167.2460406,0.57486868
敌,1,35,576.3428571,30.52399367,180.5823819,-0.2873591
底,1,34,528.6764706,15.7396782,91.77730643,-0.5053447
诋,0.685714286,21,936.4285714,44.71084727,204.890842,1.2230896
地,0.885714286,31,582.7741935,25.69673046,143.0733401,-0.2448584
弟,1,35,558.2857143,32.17605382,190.3561015,-0.4173556
帝,1,35,530.2857143,19.3878404,114.7000106,-0.5327341
蒂,0.828571429,28,769.4285714,45.77187593,242.2020015,0.5245707
颠,0.971428571,33,589.5151515,16.97313615,97.50324392,-0.2344712
典,1,35,505.3714286,26.54332389,157.0324219,-0.6334995
踮,1,34,662.6176471,36.09600525,210.4740702,0.04067079
点,1,33,500.5454545,20.7555255,119.2314165,-0.6755862
甸,0.885714286,30,636.8333333,29.53420317,161.765493,-0.0119182
惦,0.971428571,32,648.125,22.50115364,127.2857466,0.0437738
奠,1,33,671.1212121,33.54504992,192.7016408,0.13921385
殿,1,35,587.6285714,26.09823349,154.3992315,-0.2982938
电,0.971428571,34,547.5294118,14.49053015,84.49358423,-0.4066606
刁,0.942857143,31,618.0322581,28.0413475,156.1276153,-0.1018028
凋,0.971428571,33,644.7272727,32.82484141,188.5643578,0.02001154
雕,1,34,591.1764706,16.79473809,97.92930988,-0.231806
吊,1,34,518.6176471,15.9742448,93.14505296,-0.5808235
掉,0.914285714,32,569.25,28.21168541,159.5893925,-0.3523162
钓,1,34,583.6764706,27.89356907,162.6460594,-0.3084408
调,0.885714286,28,601.25,33.88396887,179.2971101,-0.1545966
爹,1,34,569.3823529,20.11380343,117.2826202,-0.2899554
跌,1,35,601.7142857,22.03616475,130.3677088,-0.1712087
迭,0.771428571,24,731.7916667,17.51055367,85.7838432,0.46799499
碟,1,34,573.3235294,19.67515696,114.7248938,-0.2727388
蝶,0.971428571,34,621.2352941,24.58127263,143.3322182,-0.1048691
叠,1,35,556.5428571,13.8610962,82.00335103,-0.3622558
丁,0.942857143,33,570.4545455,22.63604037,130.034152,-0.3689876
钉,0.942857143,33,687.6666667,37.98917476,218.2311943,0.11274927
鼎,0.971428571,34,639.6764706,18.86998015,110.0299465,0.01441204
定,1,35,549.8285714,24.58258199,145.4325163,-0.4197118
丟,0.342857143,11,628.5454545,65.14366831,216.0571052,0.0076884
冬,0.971428571,34,525.5882353,21.63063441,126.1271887,-0.5374926
东,1,35,487.5714286,18.71395856,110.7132719,-0.6995176
懂,1,35,580.8571429,22.54463893,133.3758826,-0.2676319
动,0.971428571,34,521.8823529,19.93249592,116.2254248,-0.5385018
栋,0.942857143,33,618.030303,28.66454642,164.6652826,-0.1009865
都,0.971428571,33,550.0606061,33.17666609,190.5854368,-0.4367425
抖,1,35,598.4,24.44435286,144.6147417,-0.2051189
陡,0.885714286,31,722.5483871,35.74578218,199.0240921,0.31441017
痘,0.971428571,33,650.7878788,19.41028105,111.5035755,0.07732837
督,0.942857143,32,635,24.34190267,137.6985956,-0.0353532
毒,0.942857143,33,562.3636364,19.64157128,112.8322367,-0.3489042
独,0.942857143,33,511.5757576,23.4977445,134.9842654,-0.5762141
渎,0.914285714,31,768.2580645,32.17779799,179.1583969,0.55604359
犊,0.971428571,33,654.7575758,26.55262179,152.5331993,0.07663583
读,1,33,591.7272727,21.81114154,125.295469,-0.2709517
黩,0.685714286,23,785.4347826,52.3726321,251.17032,0.50660006
堵,1,35,606.6857143,25.73852919,152.2711922,-0.1292945
睹,1,33,635.030303,25.40555463,145.9438002,-0.0029595
赌,1,35,517.9714286,20.98532844,124.1508773,-0.5579312
笃,1,34,618.5,20.10171329,117.2121232,-0.0898784
妒,1,34,683.7941176,29.87346396,174.1907313,0.15223174
杜,1,35,530.7142857,19.7740417,116.9848083,-0.5264932
肚,1,35,548.8,20.48392688,121.1845457,-0.3653487
渡,1,33,617.6969697,30.91757998,177.6079751,-0.1486338
端,0.971428571,34,543.8529412,16.5545677,96.52888792,-0.4584251
短,1,35,552.1142857,17.99849534,106.4805344,-0.3438466
段,1,35,515.8285714,17.19324109,101.716586,-0.555766
缎,0.971428571,32,702.5,33.44696693,189.204617,0.29305912
锻,1,35,624.4,20.22878389,119.6750994,-0.0570248
断,1,35,496.5428571,21.87713372,129.4268685,-0.6573566
兑,1,35,571.7714286,28.82331239,170.5210157,-0.370633
队,0.828571429,28,609.7857143,24.54239163,129.8661297,-0.1498137
对,1,35,501.6571429,16.78829839,99.32091269,-0.6535734
敦,0.971428571,33,643.7272727,34.71745459,199.4365928,-0.0380722
盾,1,35,588.1142857,28.05309406,165.9643426,-0.2682404
顿,0.971428571,34,602.6470588,31.38146876,182.9838347,-0.2183354
多,1,35,527.5142857,25.39322253,150.2283304,-0.5069659
哆,0.542857143,14,795.2142857,53.99218285,202.0202498,0.66317728
夺,1,33,539.8484848,22.13791659,127.1726487,-0.4788163
铎,0.828571429,28,668.0714286,30.55253644,161.6688267,0.09666493
朵,1,34,532.2647059,18.33717228,106.9231695,-0.5078317
惰,0.971428571,32,706.71875,30.22923956,171.0024022,0.27802851
堕,1,35,646.8285714,33.01320046,195.3087278,-0.0347511
鹅,1,33,607.5151515,35.54508238,204.1909525,-0.1604624
恶,1,35,540.9428571,16.40884896,97.07605958,-0.4611136
厄,0.942857143,33,599.9393939,20.53216893,117.9483307,-0.194373
扼,0.885714286,31,703.3548387,27.91864326,155.444427,0.27872981
腭,0.228571429,5,862.2,66.6561325,149.0476434,1.2225686
饿,0.971428571,34,604.8235294,34.85854968,203.2585263,-0.2093914
恩,1,33,537.5151515,15.19152483,87.26866606,-0.4703843
尔,1,35,608.0857143,26.68576467,157.8751129,-0.1505234
饵,1,34,644.5,31.91441457,186.0914161,-0.0272965
迩,0.657142857,19,788.1578947,52.92012425,230.6734737,0.69371938
乏,1,34,594.5294118,37.68679526,219.7498902,-0.2599855
伐,0.971428571,33,592.5454545,25.44073963,146.1459226,-0.2329894
罚,1,35,541.3428571,23.43060352,138.6173198,-0.5085556
阀,0.971428571,32,697.96875,35.88533161,202.9980906,0.19129219
法,0.857142857,29,702.9310345,28.01811215,150.8821515,0.34388394
发,1,35,518,20.23508892,119.7124005,-0.5313161
帆,1,34,577.6470588,19.63231005,114.4750555,-0.3127361
番,1,35,551.6,17.71052007,104.7768497,-0.3812708
翻,1,34,555.5588235,18.18062431,106.0103457,-0.3841739
凡,0.971428571,34,557.2058824,19.59490727,114.2569617,-0.4300341
烦,1,35,591.3142857,41.07308042,242.9916207,-0.3276822
繁,1,35,556.8,16.34176996,96.67921487,-0.3743674
反,1,35,527.3142857,20.78282142,122.9528297,-0.5320431
返,0.971428571,34,576.2352941,18.09772732,105.5269774,-0.2399561
犯,0.971428571,34,582.6176471,29.13965435,169.9119228,-0.264538
泛,1,35,537.8857143,26.71860119,158.0693763,-0.5267101
范,1,35,488.7142857,14.0206673,82.94738638,-0.6769052
梵,0.942857143,31,648.0645161,25.34437799,141.1115246,-0.0194002
贩,0.971428571,31,633.0322581,22.18555589,123.5239474,-0.0594456
饭,1,35,504.8857143,18.12954186,107.2558161,-0.6531769
防,1,33,588.3939394,19.44260879,111.6892842,-0.2505002
房,1,35,502.7142857,14.09407596,83.38167785,-0.6168657
纺,0.885714286,31,644.0967742,26.85526139,149.5237673,0.03383924
舫,0.942857143,32,677.65625,38.0380383,215.1756386,0.07289492
放,0.971428571,33,538.3636364,20.95923253,120.4016243,-0.4345421
妃,1,30,647.8,35.40035067,193.8957061,0.00642039
啡,0.714285714,21,788.4285714,49.60734256,227.3294023,0.60244417
肥,1,34,533.4411765,24.77823894,144.4807193,-0.4611265
翡,0.942857143,32,650.90625,29.54777977,167.1474835,0.04937447
诽,0.885714286,29,679.2758621,24.15859425,130.0980116,0.17117028
吠,0.742857143,25,759,44.27256487,221.3628243,0.39887761
沸,0.885714286,31,687.6129032,28.02336496,156.0274928,0.16925932
肺,0.942857143,33,647.3939394,29.63646337,170.2485204,0.01024454
费,1,35,500.9428571,15.38420793,91.0142015,-0.6572144
废,1,35,604.4571429,35.0001763,207.0638354,-0.2551066
分,1,34,491.1176471,17.34286544,101.1254141,-0.6624909
吩,0.542857143,18,605.9444444,59.7545345,253.5170193,-0.2633369
芬,0.971428571,34,641.2941176,25.17431313,146.7902089,-0.0703598
纷,0.971428571,34,513.5588235,15.889446,92.65059524,-0.592657
坟,1,35,586.5142857,35.30623225,208.8744869,-0.2890373
焚,0.971428571,34,616.4411765,23.74580144,138.4606259,-0.1279549
粉,1,35,552.3428571,24.45365855,144.669795,-0.4076465
份,0.971428571,34,536.3235294,14.73005589,85.8902473,-0.4603809
忿,1,32,591.15625,17.12696359,96.88473676,-0.185881
粪,1,33,681.3333333,41.02589876,235.6758455,0.14188066
奋,0.971428571,32,568.9375,34.87942762,197.3078383,-0.3184127
封,0.971428571,34,551.0882353,25.91551362,151.1121132,-0.4438894
锋,0.971428571,34,587.7352941,18.44968631,107.5792333,-0.256411
丰,0.942857143,33,589.8484848,20.37643475,117.0537059,-0.2513235
逢,1,34,626.1764706,35.15660078,204.9964479,-0.104743
奉,1,34,538.1470588,19.67753102,114.7387368,-0.4708199
俸,0.942857143,31,653.6451613,35.82035669,199.4393055,0.02300153
凤,1,35,548.8857143,18.72883776,110.8012984,-0.4455197
否,0.971428571,34,557.0882353,19.95705584,116.3686326,-0.3471836
夫,0.942857143,33,600.8787879,28.95201613,166.3166704,-0.1645848
敷,0.971428571,32,650.71875,20.82716096,117.816214,0.04895418
伏,1,35,585.0571429,22.47298819,132.9519911,-0.2121969
扶,1,35,634.5714286,30.13101046,178.2574618,-0.0456919
拂,0.828571429,27,715,37.52723607,194.9972386,0.31040486
服,1,34,506.5294118,14.70901571,85.76756302,-0.6376111
俘,0.914285714,31,675.7741935,28.26946792,157.397736,0.13620195
浮,1,35,606.6571429,21.83678736,129.1881762,-0.1442348
符,0.971428571,33,589.3030303,19.44234312,111.6877581,-0.2275055
福,1,35,539.7714286,22.61943411,133.8183769,-0.4622219
甫,1,35,666.7428571,29.25248945,173.0600615,0.10556359
府,1,34,626.2647059,36.91364661,215.2416977,-0.1102358
斧,1,35,547.0857143,17.59671338,104.1035603,-0.443047
俯,0.942857143,32,614.90625,17.45895875,98.762785,-0.1254107
腐,1,35,591.9428571,25.16987471,148.9069869,-0.2317126
抚,0.971428571,34,617.7647059,36.88871492,215.0963222,-0.1527164
付,0.942857143,33,573.4242424,21.51435525,123.5905615,-0.2682433
附,1,35,513.7428571,11.10192222,65.67985762,-0.5467758
咐,0.942857143,31,619.2258065,24.24031609,134.9643681,-0.1407126
复,1,34,496.6176471,19.32105216,112.6601257,-0.6677443
负,1,35,553.1142857,26.88893345,159.0770756,-0.3621781
妇,1,35,582.4,23.55155974,139.3329065,-0.2459041
傅,1,34,620.9705882,31.43800978,183.3135227,-0.1101027
富,0.942857143,33,631.8787879,37.80045689,217.1470927,-0.0839391
腹,0.971428571,33,599.2424242,21.09237575,121.1664739,-0.1580157
赋,1,35,552.6571429,18.61444017,110.1245132,-0.4097824
覆,1,35,588.3714286,21.04241757,124.4886212,-0.2487421
尬,0.885714286,26,752.3076923,38.19805751,194.7726406,0.54500452
该,1,35,548.3428571,16.16287596,95.62086373,-0.4018384
改,0.914285714,31,538.8387097,17.07498307,95.06948223,-0.4460176
丐,1,35,634.4285714,27.96036468,165.4157482,-0.01915
溉,0.457142857,15,805.2,63.85207607,247.2980273,0.71549779
概,0.971428571,33,706.3030303,42.6035611,244.7388257,0.23400517
盖,1,35,560.1428571,18.56223431,109.8156591,-0.3183225
杆,1,34,644,30.29074796,176.6238942,-0.0091322
肝,0.942857143,32,639.34375,16.45727664,93.09641529,0.02081391
竿,1,35,626.0285714,23.38240686,138.3321845,-0.0776278
秆,0.771428571,22,683.9090909,26.24063709,123.0794978,0.29157136
感,1,34,648.3529412,36.9173544,215.2633176,-0.0439909
赶,1,35,554.5142857,31.36071973,185.53252,-0.4011449
冈,0.942857143,31,668.9032258,47.17169178,262.6408644,-0.0060559
缸,0.971428571,32,723.5,37.49836018,212.1227581,0.34625487
刚,1,34,560.9117647,27.81801593,162.2055127,-0.3644526
纲,1,34,560.9117647,20.22089985,117.9070943,-0.3593553
钢,1,35,558.5142857,27.23737458,161.1384811,-0.4137684
岗,0.971428571,33,586.1212121,28.66412595,164.6628672,-0.2709453
港,1,34,566.1764706,22.75269942,132.6698958,-0.3802008
杠,0.942857143,32,593.46875,21.52670811,121.7734502,-0.2098624
高,1,35,546.2571429,22.98064011,135.9553004,-0.4415599
膏,1,35,650.1714286,16.802135,99.40277121,0.0385326
搞,0.971428571,34,552.2058824,26.42096408,154.0593706,-0.3813517
稿,1,35,565.1714286,15.76542786,93.26952901,-0.3330048
告,1,35,527.6857143,18.53476277,109.6531353,-0.5083413
哥,0.971428571,34,517.9411765,20.98505287,122.3628338,-0.5686647
胳,0.885714286,30,673.3333333,39.53576392,216.5462972,0.08143797
鸽,1,31,655.2580645,34.11845172,189.9634996,0.06215513
割,1,34,550.2058824,18.74634982,109.309064,-0.3763158
歌,1,33,506,22.70608482,130.4365267,-0.620304
蛤,0.914285714,27,654.4444444,33.22693846,172.6522368,0.05042958
骼,0.914285714,28,696.7142857,29.31180925,155.1035155,0.25751705
各,1,34,511.8529412,17.58372548,102.5298574,-0.5563021
个,0.942857143,33,578.4545455,32.7060511,187.8819594,-0.318228
给,0.942857143,32,520.21875,21.31842562,120.5952266,-0.563518
更,1,35,545.5428571,24.94246633,147.5616208,-0.4501896
庚,1,35,618.1142857,18.34752159,108.5454016,-0.1123588
耕,1,35,711.6857143,32.00506187,189.3444995,0.25231938
羹,0.885714286,28,745.7857143,26.72035058,141.3908052,0.51958023
公,1,35,477.4,15.21648818,90.02195811,-0.7301095
功,1,34,541.7941176,23.49543056,137.0007254,-0.4733745
攻,1,34,589.0294118,18.52153371,107.9981721,-0.2282174
供,1,33,571.5151515,31.94861882,183.5308423,-0.3836736
宫,0.314285714,10,877.2,79.68769597,251.9946208,1.0086109
恭,1,32,569.0625,14.14327162,80.00642615,-0.3173425
躬,1,34,616,28.75289647,167.6567561,-0.1315742
拱,0.971428571,34,641.2647059,26.38175478,153.830743,0.00781713
共,1,35,560.2285714,23.31044004,137.906423,-0.372219
贡,0.942857143,33,578.3636364,18.15791516,104.3092812,-0.2810898
勾,1,34,516.5294118,19.99782677,116.6063659,-0.557099
沟,1,35,555.5714286,23.04662011,136.3456433,-0.3764374
篝,0.714285714,22,828.8636364,47.4040519,222.3447121,0.87282338
苟,1,35,604.8285714,24.38750492,144.2784248,-0.1652918
够,1,35,565.6571429,22.92713862,135.6387813,-0.3624776
构,0.971428571,31,623.2903226,36.10561549,201.0275592,-0.1614071
购,0.971428571,33,552.6666667,21.9930114,126.3402318,-0.4096166
估,1,34,562.8823529,16.65556304,97.11778688,-0.3607496
咕,1,34,685.9705882,32.28235737,188.2368729,0.17239286
孤,0.971428571,34,555.0882353,15.57646699,90.82562969,-0.3607571
古,0.971428571,34,522.7352941,22.09432497,128.830946,-0.5238336
股,0.942857143,32,605.75,30.63952092,173.3233041,-0.2336171
固,0.971428571,34,539.5882353,19.82068086,115.5734366,-0.4584405
故,1,35,532.0571429,24.4843954,144.8516366,-0.519037
雇,0.971428571,33,614.4242424,23.92119442,137.4167999,-0.1121559
锢,0.685714286,19,813.2631579,51.07320982,222.6229603,0.7190683
顾,0.971428571,33,583.6969697,19.1661142,110.1009437,-0.2184825
刮,0.971428571,33,628,40.12117064,230.4785782,-0.1098115
呱,0.885714286,30,666.3333333,23.44871309,128.433891,0.17104815
寡,0.942857143,32,651.78125,22.0129056,124.5237986,0.05962397
乖,1,34,577.7647059,30.07107027,175.3429642,-0.2704237
怪,1,33,517.6969697,21.51952447,123.6202564,-0.5821116
官,1,33,507.4848485,21.11656507,121.3054309,-0.6328235
冠,1,34,575.4411765,26.39313336,153.897091,-0.3032418
棺,1,34,639.9411765,29.11183615,169.7497161,-0.0116044
关,0.971428571,34,559.5,18.53470272,108.07496,-0.361048
观,1,34,540.5588235,24.1263826,140.6797763,-0.4608735
馆,0.942857143,33,598.2424242,26.2268668,150.6618794,-0.2114428
贯,1,35,538.4571429,28.29839034,167.415535,-0.5030826
惯,1,34,520,11.84706466,69.07966416,-0.5326797
罐,0.971428571,33,665.6666667,35.11417165,201.7155588,0.08477408
光,1,34,508.2941176,20.72975805,120.874222,-0.6119387
胱,0.828571429,27,714.6666667,40.96979639,212.8853068,0.27526505
皈,0.885714286,28,779.2857143,33.42459163,176.8663143,0.57074962
规,1,35,580.6285714,16.37260911,96.86166173,-0.2429082
瑰,0.971428571,32,648.5625,24.50337113,138.6119991,0.05382023
归,0.971428571,33,534,29.49528082,169.4374885,-0.5423797
轨,1,35,614.9714286,24.01923199,142.0996928,-0.1268688
柜,0.971428571,33,575.1212121,26.61825948,152.9102591,-0.2716475
桂,1,35,596.2857143,22.79903328,134.8808998,-0.2063022
贵,1,34,497.4705882,13.96106346,81.40628942,-0.6408125
刽,0.971428571,34,689.9705882,32.54404626,189.7627682,0.20994987
棍,0.971428571,34,560.6470588,19.99090178,116.5659866,-0.3365205
郭,0.971428571,34,522.9411765,19.93456055,116.2374636,-0.5234654
国,1,35,543.6285714,29.15032282,172.4556355,-0.4746502
果,1,35,483.6857143,22.45244354,132.8304473,-0.7446202
过,0.971428571,34,529.4705882,21.33128201,124.3816793,-0.5535775
哈,1,34,527.4117647,18.61430064,108.5390916,-0.5080162
海,0.971428571,34,594.8529412,33.37017925,194.5799099,-0.2027231
害,0.971428571,34,579.1176471,36.7327576,214.1869425,-0.3655694
顸,0.028571429,1,1100,.,.,1.8818813
含,1,35,568.3714286,31.42920779,185.9377008,-0.3396122
函,1,35,609.7428571,27.79415158,164.4324182,-0.1567196
涵,1,35,524.3714286,22.38123035,132.4091444,-0.5462956
寒,1,35,487.0857143,22.69077373,134.2404277,-0.6990742
韩,0.914285714,32,542.40625,14.95152513,84.57859844,-0.4748033
罕,1,34,563.5588235,16.20458503,94.4881558,-0.3382781
喊,0.971428571,34,516.0294118,16.53152799,96.39454445,-0.5407049
旱,0.971428571,34,643.7058824,21.58631182,125.8687458,-0.0045018
焊,0.857142857,30,640.5,25.2395762,138.2428523,-0.0280198
汉,1,35,548,33.77361608,199.8074073,-0.4496585
杭,0.942857143,31,642.5483871,25.90183448,144.215311,0.07810483
毫,1,35,584.4857143,26.7262302,158.1145101,-0.2870447
好,0.971428571,34,559.5588235,28.32300927,165.1501046,-0.4058718
耗,0.971428571,33,623.4242424,17.64893498,101.3854126,-0.0584755
号,0.971428571,34,521.5294118,22.73486001,132.5658751,-0.5266077
喝,0.942857143,32,554.96875,25.66202024,145.1663083,-0.4452555
合,0.971428571,33,633.5151515,35.47433241,203.7845249,-0.069109
和,0.971428571,34,584.5294118,22.6653652,132.1606541,-0.2901157
荷,1,35,587.4,19.9881982,118.2517753,-0.217694
涸,0.885714286,30,743.8,33.14851291,181.5618827,0.44360532
盒,0.971428571,34,557.6764706,23.4651758,136.8243113,-0.3725053
阂,0.857142857,24,752.875,33.63644679,164.7842628,0.54410987
贺,1,35,507.5714286,30.87255684,182.6445094,-0.6713973
褐,1,32,704.3125,33.62106307,190.1894535,0.21850757
赫,0.971428571,33,574.7272727,14.30606149,82.18206645,-0.2812673
痕,0.971428571,33,639.030303,24.25724216,139.3472472,-0.0087563
很,0.914285714,32,608.5,37.82365705,213.9629151,-0.192934
狠,1,35,538.2571429,17.12398401,101.3068556,-0.457228
恨,0.942857143,31,670.483871,31.43892769,175.0445412,0.12952171
亨,0.942857143,30,727.8,45.84908778,251.1257962,0.42240489
恒,1,33,633.7575758,30.00643966,172.3738724,-0.1072869
横,0.485714286,16,620.4375,46.37599673,185.5039869,-0.1126703
衡,1,32,598.09375,22.09589435,124.9932539,-0.1706615
哄,1,35,554.0571429,23.52609647,139.1822637,-0.4355463
轰,1,33,534.5757576,16.94398248,97.33576883,-0.487464
洪,1,35,558,18.70042466,110.6332042,-0.3504262
鸿,1,34,627.0294118,22.26191064,129.80813,-0.0824319
侯,0.914285714,31,538.1612903,18.34086434,102.1176109,-0.4600939
吼,0.971428571,34,632.0882353,27.17115382,158.4336909,-0.0593088
后,1,35,531.6857143,19.67016986,116.3702942,-0.515998
厚,1,35,523.7428571,16.2245453,95.98570447,-0.5417325
候,1,34,587.8823529,24.1198273,140.6415527,-0.2368192
乎,1,35,488.2857143,13.82991347,81.81887149,-0.6909198
呼,1,35,571.1142857,24.2332077,143.3655901,-0.3056615
忽,1,34,517.3823529,13.81343831,80.54549428,-0.5485709
狐,0.971428571,34,571.5882353,32.61212983,190.1597602,-0.3475233
壶,0.971428571,34,578.8529412,28.18996333,164.3743201,-0.3175523
瑚,0.771428571,26,649.8461538,31.43901018,160.3081264,0.04704711
糊,1,35,528.2285714,18.69961963,110.6284416,-0.4944729
蝴,0.971428571,31,686.7741935,30.37775465,169.1361798,0.25576308
虎,0.971428571,31,589.2903226,25.51049514,142.0364257,-0.235022
互,1,35,512.4857143,16.52181504,97.74437593,-0.5687863
护,0.971428571,34,600.8235294,29.34226905,171.0933593,-0.2414606
花,1,35,510.9142857,16.70004133,98.79877691,-0.5691309
华,1,35,506.6,20.14119071,119.1568911,-0.6080669
滑,1,35,520.6,19.6201834,116.0745704,-0.5034177
猾,1,35,588.1714286,30.29960994,179.2549098,-0.2786456
化,0.971428571,34,564.5294118,19.61361323,114.3660352,-0.3404842
画,1,33,511.1818182,25.62072043,147.1798336,-0.5181117
话,0.971428571,31,599.4193548,39.50262749,219.9413216,-0.2585042
划,1,34,564.8823529,30.92290352,180.3099629,-0.3725413
徊,0.942857143,33,672.2727273,42.03176272,241.4540941,0.04524887
怀,1,35,540.8285714,28.20428139,166.8587789,-0.4863484
坏,1,35,535.2,18.26360665,108.048954,-0.4843479
欢,1,35,565.3428571,25.2911099,149.624224,-0.3674743
还,1,35,514.1714286,17.77054903,105.1319859,-0.5336252
环,0.971428571,34,619.6470588,30.10533742,175.5427743,-0.0816887
缓,0.971428571,34,575.8529412,26.67290922,155.5284505,-0.240357
幻,1,33,610.6666667,26.35256538,151.3839627,-0.1687622
奂,0.8,27,679.6296296,45.35030314,235.6470875,0.12242968
患,1,35,591.8571429,28.8570555,170.7206426,-0.278096
唤,1,35,575.1714286,12.82051178,75.84717053,-0.3047735
焕,0.971428571,34,616.8529412,17.83705872,104.0070313,-0.1163483
痪,0.828571429,27,735.7037037,48.20956197,250.5042322,0.36901575
皇,1,35,485.7142857,22.51369598,133.1928216,-0.7153489
惶,0.971428571,33,653.030303,38.98653334,223.9605831,-0.0596271
煌,0.971428571,33,640.1818182,30.5959573,175.7603935,-0.0368686
恍,0.914285714,32,612.65625,39.59303074,223.9720042,-0.2151439
晃,0.942857143,33,586.8787879,26.61167712,152.8724463,-0.278114
谎,1,34,564.0882353,17.52952018,102.2137889,-0.3333628
灰,1,35,523.8,15.51430893,91.7838894,-0.514685
挥,1,35,599.9714286,25.86118358,152.9968254,-0.2169346
诙,0.628571429,17,898.7058824,63.26169763,260.8346614,0.89206187
辉,1,35,551.4857143,19.34474377,114.4450475,-0.4284724
回,1,34,493.2647059,18.25938622,106.4696027,-0.6780638
卉,0.971428571,34,693.9117647,32.03803354,186.8122324,0.23082562
晦,0.914285714,32,703.84375,31.55384892,178.4955244,0.24814757
惠,0.942857143,33,613.7878788,27.22687223,156.4064732,-0.1778519
汇,1,35,562.4285714,18.53233766,109.6387881,-0.352139
会,1,35,501.2857143,21.93732752,129.7829798,-0.6528755
贿,1,35,627.7142857,22.06760321,130.5537012,-0.1249676
诲,1,34,616.2058824,22.91100271,133.5929547,-0.1360651
讳,0.971428571,33,657,24.8310961,142.6437871,0.11730483
秽,0.885714286,29,684.6896552,27.91719386,150.3386899,0.20294611
绘,1,35,611.2,22.77053234,134.712286,-0.1297385
昏,1,35,499.8571429,13.16668465,77.89515686,-0.6255608
浑,1,35,546.8285714,23.30829137,137.8937114,-0.4446605
魂,1,35,574.7714286,19.65184729,116.2618965,-0.3139241
活,0.8,28,616.8571429,40.32230317,213.365573,-0.1380389
伙,1,34,577.4411765,28.49824685,166.1719065,-0.3448847
或,1,34,556.5588235,24.36239289,142.055941,-0.4083371
货,1,35,493.1428571,15.49947914,91.69615518,-0.672643
惑,1,35,588.3142857,23.99253285,141.9417386,-0.2279249
获,1,33,627.6666667,24.59473285,141.2859836,-0.0515454
霍,0.942857143,32,620.3125,29.01415942,164.128871,-0.1079524
圾,0.771428571,25,728.08,40.29437182,201.4718591,0.39850232
姬,1,34,682.5294118,24.48143956,142.7500964,0.17846503
饥,0.971428571,31,648.5483871,27.5296063,153.2783609,0.046912
基,1,34,559.5294118,20.31043546,118.4291721,-0.3412141
箕,0.857142857,26,718.5,29.76979626,151.796772,0.33012959
稽,0.971428571,34,655.8235294,28.09458403,163.818168,0.06158684
缉,0.971428571,34,578.5294118,21.86264998,127.4800603,-0.3096565
激,0.971428571,32,557.6875,15.6115547,88.31228954,-0.3948273
积,0.885714286,29,623.9310345,19.32091767,104.0463259,-0.099459
击,1,35,544.5428571,25.7135266,152.1232749,-0.455246
绩,0.914285714,32,590.78125,23.60036625,133.5038321,-0.2155417
鸡,0.971428571,33,573.6969697,23.52780773,135.1569654,-0.2884427
羁,0.942857143,32,715.9375,28.08081431,158.8490737,0.36347328
及,1,35,512.0857143,23.13295047,136.8563806,-0.6015832
吉,1,35,580.2285714,24.49284189,144.9016067,-0.285
即,0.971428571,34,541.3235294,22.18580268,129.3643482,-0.4741257
急,1,35,472.4571429,21.13125619,125.0141975,-0.7672472
级,1,34,607.5588235,25.62986196,149.4464921,-0.1784063
疾,0.971428571,33,595.6060606,19.13181644,109.9039181,-0.209889
棘,0.885714286,31,682.516129,23.47196319,130.6863602,0.20018954
集,1,32,589.4375,21.98496267,124.3657295,-0.2272806
瘠,0.571428571,19,789.5263158,42.42429573,184.9232178,0.56602262
辑,1,35,617.7142857,26.59005853,157.3089077,-0.1065211
脊,1,35,656.2857143,23.66792573,140.0213369,0.05658465
挤,1,35,579.6,22.76416172,134.6745969,-0.3017924
技,1,35,599.8571429,25.37351702,150.1117511,-0.1755159
季,1,31,618.7096774,38.99032672,217.0889516,-0.1713905
既,0.971428571,34,561.9705882,22.52384299,131.335445,-0.3791912
纪,1,35,536.9142857,12.98437143,76.81657734,-0.4577172
计,1,35,554.2,20.30576356,120.1305173,-0.3696831
寂,0.971428571,34,538.6176471,20.34659636,118.6400246,-0.4266971
寄,0.971428571,34,565.2058824,26.29805776,153.3427097,-0.3594381
悸,0.885714286,29,715.0689655,27.8567293,150.0130782,0.31305145
祭,1,35,641.2857143,27.01996061,159.8522427,0.00471895
迹,1,35,577.6,34.47927645,203.9821503,-0.3455237
际,0.971428571,34,572.4411765,24.32607483,141.8441721,-0.2951246
稷,0.885714286,29,825.3793103,38.54625568,207.5779395,0.79902816
剂,1,35,547.6285714,16.59032247,98.14967134,-0.4070742
济,1,35,551.7714286,27.36372148,161.8859594,-0.4153429
继,1,35,541.9428571,21.80578687,129.0047748,-0.4859412
加,1,34,534.1176471,21.38601025,124.700797,-0.4832581
夹,1,35,510.1142857,12.25854334,72.52252041,-0.5883059
佳,0.914285714,31,566.0322581,35.4069577,197.1375973,-0.3914474
迦,0.742857143,22,799.3181818,47.76558862,224.0404696,0.60205842
家,0.942857143,32,567.78125,23.00875247,130.1571592,-0.3448798
浃,0.428571429,10,828.3,74.87872417,236.7873167,0.8673992
袈,0.685714286,20,753.35,46.79610167,209.2785288,0.48358042
嘉,1,35,539.8285714,24.73205948,146.3168371,-0.4909766
架,1,35,507.8571429,15.43248472,91.29981086,-0.618662
假,0.971428571,34,547.0588235,24.76171435,144.3843652,-0.4308119
嫁,1,34,534.7941176,15.81255956,92.20227415,-0.4746121
价,0.942857143,32,561.46875,16.79201425,94.98997719,-0.3523106
稼,0.914285714,31,696.4516129,33.59348499,187.0406086,0.22971139
驾,1,35,549,27.55989657,163.0465469,-0.4467663
奸,0.971428571,34,623,23.97800537,139.8145958,-0.0772859
尖,1,34,600.5294118,30.64770888,178.7053161,-0.2449024
肩,1,35,646.8857143,25.44361938,150.5264822,0.0450191
兼,1,34,557.9117647,25.11039326,146.4174952,-0.395877
坚,1,35,535.1428571,26.86730989,158.9491489,-0.4846292
间,1,35,530.7428571,14.54534162,86.05140148,-0.4793792
监,1,35,514,16.45457204,97.34656101,-0.5983589
艰,0.971428571,33,599.7878788,37.57736357,215.8655191,-0.2756303
柬,0.885714286,29,633.9310345,21.35098036,114.978548,-0.0512255
剪,0.942857143,32,562.375,21.94906815,124.1626794,-0.3647079
拣,1,34,641.5588235,30.43072233,177.440078,-0.0272138
减,1,34,537.2941176,17.98278685,104.856765,-0.4665115
捡,1,35,573.6857143,32.22830249,190.6652088,-0.314368
件,0.971428571,34,634.5882353,26.69178132,155.6384929,-0.0243027
建,0.971428571,34,521.3529412,19.57502512,114.1410298,-0.5386708
健,1,34,545.8529412,20.75479166,121.0201917,-0.4452022
渐,1,34,510.1470588,12.33859302,71.94574233,-0.6065045
箭,1,35,556.7142857,17.97587419,106.3467059,-0.3479134
荐,0.971428571,34,557.8823529,18.21889896,106.2335234,-0.4054969
键,0.971428571,34,627.6176471,38.80514912,226.2709578,-0.153731
饯,0.885714286,27,790.7037037,36.79502842,191.1925761,0.65213968
溅,0.971428571,33,650.5757576,37.6672289,216.3817561,-0.0293907
舰,0.857142857,30,664.4,32.91387577,180.2767222,0.06093986
鉴,1,34,530.8235294,18.0690136,105.3595491,-0.4757678
江,0.914285714,31,506.0322581,17.5503873,97.71642096,-0.5889937
浆,1,35,596.4857143,27.30879661,161.5610195,-0.2209766
缰,0.828571429,25,754.48,48.26203201,241.31016,0.49442742
疆,0.857142857,26,722.1538462,32.48936831,165.663923,0.34106034
桨,1,34,622.5,21.79458673,127.0831868,-0.0778241
奖,0.971428571,34,532.8235294,19.58574869,114.2035585,-0.5296937
讲,0.942857143,32,534.3125,14.99075236,84.80050118,-0.4633424
匠,0.971428571,34,570.9117647,20.51130585,119.6004377,-0.3297723
降,1,34,528.5294118,31.29285611,182.4671386,-0.5642543
将,1,34,502.8823529,17.00381444,99.148424,-0.6343932
交,1,35,473.6285714,16.67368912,98.64287509,-0.7855522
郊,0.971428571,33,506.8787879,11.79799655,67.77433031,-0.6125811
椒,0.885714286,28,795.75,40.47105651,214.1527017,0.62643442
焦,1,35,548.2285714,33.96152261,200.9190773,-0.4701071
蛟,0.942857143,33,698.2121212,33.15570354,190.4650161,0.2140177
娇,0.971428571,34,586.9117647,26.17302797,152.6136671,-0.2971765
浇,1,35,641,28.7864931,170.3031898,-0.0442121
骄,1,34,556.5294118,18.94909379,110.4912544,-0.3831922
佼,0.771428571,23,720.5217391,43.03693007,206.3978659,0.24804874
狡,0.971428571,33,628.0606061,25.93479365,148.9840468,-0.0771669
皎,0.971428571,34,654.3823529,29.43284494,171.621503,0.03644554
绞,0.942857143,32,712.59375,36.02600034,203.7938331,0.32104538
脚,1,35,530.9142857,22.46361657,132.8965479,-0.5187363
矫,1,35,634.1142857,21.57884785,127.6621855,-0.0643987
搅,0.971428571,34,642.8235294,28.39887995,165.5925029,0.02641852
叫,1,34,560.0588235,24.42854694,142.4416821,-0.3108079
教,1,35,551.2571429,25.35715777,150.0149684,-0.4288621
窖,0.942857143,31,706.2258065,30.31670499,168.7962696,0.2855132
皆,0.971428571,33,600.6060606,32.31552948,185.6385836,-0.2358216
阶,0.942857143,32,599.5625,38.19944312,216.0886821,-0.2349248
街,1,35,556.4571429,17.31072155,102.4116098,-0.3802935
劫,1,34,604.3823529,20.70839965,120.7496822,-0.1446069
拮,0.542857143,15,824.4,51.44130266,199.2313085,0.77670357
捷,1,35,595.4571429,21.46148956,126.9678845,-0.2184875
杰,1,34,482.7647059,18.25219733,106.4276846,-0.729636
结,0.942857143,32,542.125,24.82664696,140.4407233,-0.4397104
节,0.971428571,33,560.5454545,29.42247424,169.0192465,-0.3755012
截,0.971428571,33,576.6969697,16.8708039,96.91538992,-0.2430429
竭,1,34,593.2058824,23.69784467,138.1809923,-0.2789252
洁,0.942857143,32,610.40625,23.549744,133.2174694,-0.1448683
解,1,34,553.6176471,26.07510114,152.0426604,-0.3978531
介,1,34,569.8823529,22.14350235,129.117697,-0.3579701
戒,1,34,528.7058824,14.25240571,83.10509207,-0.521613
届,1,33,549.2121212,23.42920338,134.5905266,-0.413921
界,0.971428571,34,501.2941176,18.3179256,106.810943,-0.620755
借,1,34,605.0882353,22.58974448,131.7197134,-0.1534281
诫,0.971428571,32,651.96875,31.40033145,177.6270984,0.02171193
今,1,34,523,25.92457867,151.1649711,-0.5813207
津,0.942857143,33,548.9393939,12.95680026,74.43115082,-0.3604148
筋,0.971428571,34,582.4411765,20.48816846,119.4655247,-0.298692
襟,0.971428571,32,658.78125,21.98316504,124.3555606,0.07324482
仅,0.971428571,33,554.6666667,18.61988524,106.9630972,-0.3642568
尽,1,35,535.6,24.14003961,142.8144003,-0.4729263
紧,0.971428571,34,553.2352941,25.00299657,145.7912702,-0.4151098
锦,0.942857143,32,598.03125,28.99302907,164.0093397,-0.2414508
劲,1,34,595.8823529,31.91040724,186.0680496,-0.2175966
晋,0.971428571,33,589.8181818,18.32340233,105.2599326,-0.2652834
进,0.942857143,29,591.2413793,33.06720486,178.0723479,-0.2730794
禁,1,35,560.7428571,16.65923131,98.55734158,-0.3452421
噤,0.742857143,22,733.2727273,35.66493797,167.2833871,0.48771548
京,1,34,480.2352941,9.799146787,57.13835353,-0.7115395
荆,0.942857143,29,654.0344828,36.35154311,195.7590506,0.03931184
茎,1,35,634.5428571,29.65585075,175.4463791,-0.030794
晶,1,33,555.2727273,23.55728321,135.3262892,-0.3955442
经,1,35,587.4571429,32.18194971,190.3909821,-0.2718246
兢,0.914285714,30,696.4333333,37.33023437,204.4661144,0.17743195
鲸,1,35,664.0285714,24.8056813,146.7523896,0.11113839
惊,0.971428571,34,638.4705882,37.75139703,220.12658,-0.1029057
井,0.971428571,33,562.9393939,16.4876526,94.71435325,-0.3320208
阱,0.628571429,21,625.7142857,31.75187605,145.5053755,-0.0648096
景,0.971428571,32,629.5625,42.90276275,242.6946758,-0.1812196
憬,0.828571429,23,788.4347826,59.92946533,287.411619,0.59815837
颈,0.971428571,34,655.2352941,26.58343938,155.0067562,0.05632051
警,1,35,610.2571429,26.510196,156.8364346,-0.1291155
径,0.942857143,32,569.25,19.59241953,110.8314617,-0.339825
净,1,35,570.4,19.24181371,113.8361051,-0.3227485
竟,0.971428571,33,534.8484848,17.0439006,97.90975475,-0.4904165
敬,1,32,522.6875,28.33275196,160.2742483,-0.5720682
境,1,34,517.4117647,16.83378519,98.15699165,-0.5417097
静,1,33,514.5757576,12.50091135,71.81226841,-0.5675614
竞,1,34,581.8235294,32.13617057,187.3844647,-0.2722197
迥,0.942857143,32,775.90625,44.17257577,249.877823,0.5146954
揪,0.942857143,32,681.5625,25.19020137,142.4972977,0.15493642
九,0.971428571,34,537.7941176,21.55694608,125.6975156,-0.4794591
久,1,35,552.4857143,20.96445056,124.0273621,-0.3658687
灸,0.771428571,26,694.1923077,36.06165742,183.8790949,0.22933319
酒,1,35,614.5142857,35.1377929,207.8779862,-0.1726913
咎,0.971428571,32,731.46875,33.51492158,189.5890266,0.39105358
疚,0.857142857,27,752.9259259,41.37897005,215.0114355,0.39636997
救,1,35,520.9142857,20.57077847,121.6983666,-0.5511181
就,1,33,571.5151515,26.27347872,150.9296445,-0.3103118
舅,1,35,572.2285714,20.16153613,119.2772563,-0.3165968
旧,0.942857143,32,621.25,22.49982079,127.2782068,-0.0903384
居,0.942857143,33,548.0606061,24.69898091,141.8848431,-0.4711001
拘,1,35,630.4857143,28.47839728,168.4804704,-0.0762737
鞠,0.971428571,33,644.9090909,28.48422489,163.6294143,-0.0235352
局,0.971428571,34,525.7941176,29.79298089,173.7214384,-0.5236738
桔,1,35,605.9714286,25.42537228,150.418531,-0.1956551
橘,1,34,633.9117647,23.27504948,135.7156938,-0.0362361
沮,0.971428571,34,633.4117647,32.17593452,187.6163264,-0.0868359
矩,0.971428571,33,575.0606061,18.87167287,108.409507,-0.3017795
举,1,33,538.1212121,27.7880151,159.6299936,-0.4915395
句,0.942857143,31,640.516129,38.84379722,216.2731099,-0.0599934
巨,0.942857143,33,569.7575758,23.80408635,136.7440653,-0.3203627
具,1,34,549.0588235,31.17185248,181.7615723,-0.4274999
俱,1,34,594.6176471,22.71688947,132.4610897,-0.2494011
距,0.971428571,33,549.0909091,19.60569469,112.6261414,-0.4121177
剧,0.971428571,34,525.0588235,15.53191993,90.56587797,-0.5335971
据,1,35,646.8571429,30.4347806,180.0545902,-0.0220199
瞿,0.971428571,32,694.8125,21.63220966,122.3702572,0.26208844
惧,0.971428571,34,618.2647059,18.23188471,106.3092427,-0.1394134
卷,0.971428571,33,500.8484848,22.74688295,130.6708941,-0.6630815
决,1,35,544.6571429,18.52479342,109.5941558,-0.3972262
珏,0.685714286,22,705.4090909,43.71110685,205.0232644,0.23797379
倔,0.942857143,31,652.0645161,44.93782887,250.2032421,-0.0613546
掘,1,34,615.1764706,31.85630814,185.7526003,-0.1736664
绝,0.971428571,34,551.9705882,19.77851899,115.3275928,-0.4199777
爵,1,35,658.1428571,26.26030467,155.3580576,0.02507891
蹶,0.857142857,27,795.5925926,32.78437972,170.3526341,0.67740942
觉,1,35,525.2285714,19.39397315,114.7362925,-0.5272355
君,0.971428571,34,553.5294118,28.09619443,163.8275581,-0.402599
均,1,35,584.1714286,28.31032967,167.486169,-0.2589352
军,1,35,511.7714286,31.40652626,185.8035151,-0.6048478
钧,0.914285714,32,666.90625,47.74574291,270.0907087,0.02088361
峻,0.714285714,23,770.2173913,44.85875755,215.1350435,0.49923023
卡,1,35,521.1428571,15.69435711,92.84906882,-0.5166448
揩,0.714285714,24,770.625,42.35468818,207.4947485,0.48777098
开,1,34,506.2352941,21.09413833,122.9989058,-0.6167531
凯,0.971428571,33,613.0606061,22.44724199,128.9495879,-0.1450077
慨,0.971428571,33,563.6969697,18.16311222,104.339136,-0.3602921
恺,0.857142857,28,699.4642857,35.96178462,190.2918776,0.27174933
堪,1,35,574.8571429,18.77237121,111.0588458,-0.2753613
坎,1,32,649.34375,29.09836659,164.6052187,0.03813523
砍,0.971428571,32,647.71875,43.85455788,248.0788421,-0.0136908
看,1,35,520.0285714,22.01361251,130.2342879,-0.5612881
康,1,35,555.0285714,18.75989311,110.9850244,-0.3810171
慷,0.971428571,33,587.8484848,26.50754328,152.274243,-0.2694591
扛,0.942857143,31,666.2903226,29.53799061,164.4605715,0.17700901
考,1,35,495.2857143,16.85950703,99.74218868,-0.6932211
烤,0.971428571,34,555.1470588,27.81140754,162.1669795,-0.4158595
铐,0.857142857,28,676.25,29.16948399,154.350401,0.12250979
靠,1,34,486.2647059,14.227732,82.96122089,-0.706071
科,1,34,578.4411765,30.0978852,175.4993208,-0.2819973
棵,0.942857143,33,736.5454545,39.81743591,228.733755,0.3094778
瞌,0.942857143,32,702.875,32.46809072,183.667257,0.2419933
磕,1,35,699.8,33.77204353,199.798104,0.20625929
颗,0.971428571,32,624.6875,32.38554404,183.2003024,-0.1189835
壳,1,34,553.2941176,20.36356404,118.7389623,-0.4195526
可,1,35,528.2285714,28.09004386,166.1829406,-0.5339181
克,0.971428571,34,541.0588235,23.52170997,137.1539593,-0.4576454
刻,1,35,492.9142857,14.74029357,87.20475278,-0.6796517
客,1,35,538.3714286,21.91331607,129.6409262,-0.4727239
课,0.942857143,30,633.0333333,24.86725601,136.2035706,-0.0782248
肯,0.942857143,33,528.7272727,19.85001874,114.0296762,-0.5241036
吭,0.971428571,34,663.2941176,33.00257996,192.4364562,0.05426318
坑,0.885714286,28,671,27.74491707,146.8123014,0.15391462
铿,0.914285714,29,741.0689655,28.29946,152.397256,0.37907947
孔,1,35,487.6285714,15.4587054,91.45493449,-0.7095319
控,1,35,573.5142857,25.32993617,149.8539233,-0.289853
叩,0.771428571,22,821.4090909,53.89835949,252.8057148,0.70406771
扣,0.914285714,31,579.2580645,14.8092508,82.45441882,-0.2838127
寇,0.971428571,32,674.3125,36.47746867,206.3477237,0.13634253
哭,1,34,504.1764706,12.92074225,75.34022652,-0.6182671
窟,0.914285714,31,741.9677419,35.75058414,199.0508283,0.44112807
库,1,35,548.9428571,18.60861565,110.0900548,-0.4204502
酷,0.971428571,34,629.9411765,22.00425097,128.3057289,-0.0654385
裤,1,34,573.9117647,25.64106303,149.5118051,-0.3121852
夸,1,35,507.0285714,16.58426336,98.11382517,-0.5930904
胯,0.771428571,27,803.2592593,43.3297695,225.1480868,0.7561258
快,0.971428571,34,547.7647059,24.04811942,140.2234275,-0.4608819
宽,1,35,550.4285714,28.4124569,168.0903619,-0.4361417
款,1,35,576.1428571,15.64158124,92.53684254,-0.294846
匡,0.8,28,743.25,41.58689586,220.0571685,0.40652747
筐,0.971428571,34,671.4117647,25.87251474,150.8613888,0.15621008
狂,1,34,516.7647059,15.93553518,92.91933903,-0.5681237
况,1,35,591.6285714,13.74540936,81.31893843,-0.2003558
眶,0.771428571,24,709.5,27.98013011,137.0740834,0.34081771
旷,0.942857143,32,686.03125,22.84451672,129.2281015,0.21930996
盔,1,35,597.8,24.93591113,147.5228397,-0.1935702
窥,0.971428571,33,644.8484848,20.94256762,120.3058917,-0.0043653
亏,0.971428571,33,572.9090909,26.04808213,149.6348396,-0.2769538
魁,0.971428571,31,625.8064516,20.57080191,114.5333778,-0.0965519
傀,0.8,23,757.6086957,30.35877296,145.5955604,0.53334431
溃,0.971428571,33,592.7272727,22.26873032,127.9241164,-0.2592408
篑,0.285714286,5,1107.4,129.4606504,289.4828147,1.3238854
坤,1,32,579.9375,20.8216281,117.7849154,-0.2824221
昆,0.971428571,32,573.78125,23.23888628,131.4589926,-0.3361718
捆,0.942857143,33,658.2424242,29.75954871,170.9555919,0.03147427
括,0.971428571,34,651.4705882,24.90882609,145.2421667,0.05693947
扩,0.914285714,31,670.4193548,32.04864495,178.4393033,0.10068043
垃,0.971428571,32,599.03125,26.4854831,149.8245176,-0.1995505
拉,1,35,498.0857143,18.48016749,109.3301453,-0.6667031
啦,1,35,552.3142857,17.55733807,103.8706128,-0.3892649
喇,0.885714286,28,682.0714286,29.3948637,155.5429984,0.19824845
剌,0.657142857,21,752.5238095,54.42393639,249.4018081,0.44257813
辣,1,35,605.3714286,30.35042081,179.555511,-0.1403954
腊,1,34,599.2647059,21.7068998,126.5718885,-0.1972765
蜡,0.971428571,34,588.3235294,21.35406137,124.5145046,-0.2236006
来,0.971428571,33,531.0606061,23.60750472,135.6147898,-0.5468829
徕,0.342857143,8,816.625,54.41866063,153.9192158,0.83085319
赖,1,34,570.1470588,24.93861027,145.4158368,-0.3399173
癞,0.914285714,29,682.3793103,25.12394957,135.296609,0.21808472
籁,0.857142857,26,662.5384615,22.17720457,113.0819988,0.11451865
蓝,1,35,509.8571429,22.18751799,131.2631266,-0.5865918
篮,0.971428571,34,509.4411765,18.74237533,109.285889,-0.5808806
兰,0.971428571,32,527.15625,26.13149554,147.8220616,-0.5586784
栏,1,35,568.8285714,23.51682701,139.1274248,-0.3636008
懒,1,34,567.8823529,18.45038463,107.5833052,-0.3080573
览,1,35,569.1428571,21.84391317,129.2303331,-0.3272854
缆,0.942857143,32,615.65625,32.96101709,186.4556696,-0.1478172
滥,1,33,624.969697,29.32922723,168.4835832,-0.0651407
烂,1,34,540.9411765,23.23417719,135.4773695,-0.471859
狼,1,33,506.4848485,23.05244027,132.4261873,-0.672847
朗,0.971428571,34,537.1470588,19.74350374,115.1234206,-0.4949741
捞,0.942857143,30,655.4666667,30.95323626,169.5378573,0.00942662
牢,1,35,560.8857143,19.27648332,114.0412132,-0.3700801
劳,0.971428571,32,578.15625,25.71345314,145.4572566,-0.296425
佬,0.771428571,24,724.9166667,48.76826736,238.9147413,0.40464677
烙,1,34,684.8823529,39.54576682,230.589464,0.11386358
酪,0.914285714,32,678,29.61952958,167.5533617,0.11393354
勒,0.971428571,33,678.4848485,35.20944156,202.2628428,0.14624345
乐,1,35,524.2857143,17.04859941,100.8608743,-0.5210936
雷,1,35,510.1142857,19.90404593,117.7539237,-0.6206558
镭,0.914285714,29,749.2413793,38.60414406,207.889678,0.49787387
儡,0.571428571,17,822.4705882,46.84353788,193.1408546,0.70569223
肋,0.885714286,29,779.7241379,36.63613847,197.2916435,0.64734683
泪,0.971428571,34,624.4705882,36.77709595,214.4454773,-0.173428
累,1,34,548.3823529,21.61583292,126.0408819,-0.4561918
擂,0.971428571,33,655.6969697,24.06578283,138.2473971,0.02341094
类,1,34,564.0294118,23.32015742,135.9787161,-0.3547623
冷,1,34,587.7941176,26.126348,152.3414783,-0.1928867
厘,1,34,654.5294118,33.78827427,197.0178019,0.0309395
犁,0.971428571,32,714.65625,41.09316739,232.4580586,0.25253385
狸,1,34,595.7058824,16.82257891,98.09164837,-0.204851
罹,0.828571429,28,739.7857143,30.35226852,160.6091084,0.50457228
离,1,35,582.1714286,18.9598641,112.1680687,-0.2409315
李,1,35,522.2,16.86116317,99.75198656,-0.5402482
哩,0.828571429,26,769,57.64917772,293.9542822,0.43959225
礼,1,35,518.5714286,19.46512873,115.1572546,-0.534117
吏,1,35,606.1428571,23.4837023,138.9314564,-0.1893221
利,1,34,541.2352941,23.35802331,136.1995103,-0.446206
例,0.914285714,29,590.7586207,21.95245956,118.2176127,-0.1934445
俐,0.885714286,28,667.1428571,24.59501145,130.1445676,0.17742118
荔,0.914285714,30,681.5666667,22.67733099,124.2088573,0.20120935
栗,1,34,704.6764706,34.0131232,198.3288852,0.27841121
笠,0.971428571,32,664.65625,21.32324234,120.6224741,0.06399888
粒,1,35,490.4571429,15.61933422,92.4052274,-0.6924984
莅,1,32,769.28125,32.29745303,182.7019844,0.5407803
厉,1,35,574.8285714,26.37246099,156.0215833,-0.3258677
励,1,34,536.1470588,12.60168143,73.47979824,-0.4634744
历,1,35,501.5142857,17.99427413,106.4555614,-0.6677944
丽,1,35,514.7142857,19.90412193,117.7543733,-0.5731363
砾,0.828571429,28,762.5,40.56924644,214.6722739,0.42742796
俩,0.971428571,34,531.7941176,21.50889131,125.4173105,-0.4980228
帘,0.971428571,34,612.3823529,28.93144564,168.6978678,-0.1765363
连,1,35,497.9142857,14.64110545,86.61794795,-0.6235929
涟,0.914285714,32,621.84375,22.66734851,128.2258867,-0.1065876
莲,0.971428571,32,532.21875,13.40368377,75.8226855,-0.4781179
怜,0.971428571,34,593.2941176,22.07738494,128.7321696,-0.2423924
联,1,34,557.6470588,20.96984008,122.2741288,-0.3617718
镰,0.971428571,32,699.15625,30.7191725,173.7738815,0.23343778
敛,0.942857143,31,657.1612903,22.8641663,127.3022903,0.09789857
脸,1,35,572.3428571,27.65653517,163.6182686,-0.3043184
炼,1,35,553.0857143,23.25508425,137.5789338,-0.4331401
练,1,35,517.3428571,17.99733607,106.4736761,-0.5960356
链,1,35,625.1428571,21.34192004,126.2605017,-0.035586
恋,1,35,538.3714286,13.10366462,77.52232533,-0.4615908
良,1,35,538.4,35.7214292,211.3308251,-0.5544449
梁,1,35,491.5142857,15.66027847,92.64745685,-0.6854459
凉,0.971428571,32,590.03125,36.91065074,208.7981715,-0.2808436
两,1,35,504.2,19.63527952,116.1638802,-0.635222
亮,1,35,542.8,18.86648355,111.6156219,-0.4449017
量,1,35,553.9428571,21.77752071,128.83755,-0.3867337
谅,1,34,601.9705882,21.60178763,125.9589845,-0.1922416
辆,1,35,520.6285714,15.48054272,91.58412581,-0.5425043
聊,1,35,547.4,21.56460686,127.5779347,-0.4509437
寥,0.971428571,33,642.7878788,25.27544314,145.1963665,-0.0090434
廖,1,34,557.8529412,17.71014052,103.2669774,-0.394429
寮,0.628571429,22,809.3181818,45.52005345,213.5079761,0.86451332
撩,0.971428571,34,595.0588235,25.99674123,151.5857475,-0.2072306
燎,0.885714286,29,697.4482759,33.32304142,179.4500699,0.21431845
疗,1,33,555.0606061,17.01246977,97.72919836,-0.3907995
了,0.971428571,33,529.4545455,15.49328367,89.00213864,-0.5352839
料,1,35,601.7428571,32.69742474,193.4405735,-0.1975297
列,1,34,500.7058824,12.83416295,74.83538679,-0.6546007
劣,1,34,623.7941176,30.98604652,180.6781467,-0.1040285
烈,1,34,507.0294118,15.12493929,88.19279339,-0.6032116
捩,0.228571429,6,838.3333333,99.14422715,242.8527675,0.94501549
裂,1,35,611.3714286,26.98885813,159.668238,-0.1449087
猎,1,34,570.3529412,31.74811411,185.1217261,-0.3702019
林,1,34,508.4117647,16.02611047,93.44747922,-0.6069283
淋,0.971428571,34,602.2647059,25.41124531,148.171749,-0.1965422
琳,0.942857143,32,572.03125,24.50660232,138.6302775,-0.3349283
临,1,35,519.8,20.69546291,122.4360097,-0.5683834
鳞,0.971428571,34,661.6764706,21.89358971,127.6604684,0.0984561
禀,0.971428571,32,673.25,30.59461132,173.0692571,0.16869259
吝,0.971428571,31,685.3870968,34.43740394,191.7393504,0.1870461
蔺,0.6,18,819.6111111,50.5939325,214.6518765,0.81523867
躏,0.828571429,27,759.1111111,35.02999664,182.0212019,0.48720699
伶,1,35,591.1142857,24.76503945,146.5119492,-0.2429836
岭,0.942857143,32,613.28125,27.99381536,158.3569334,-0.1085398
凌,1,35,617.0285714,27.77643296,164.3275935,-0.0797491
陵,0.914285714,31,634.1290323,24.91619251,138.7274887,0.02449931
铃,0.971428571,34,590.9705882,24.3198563,141.8079122,-0.2296338
龄,1,32,703.15625,40.5861566,229.5899724,0.2504469
令,1,35,495.8285714,15.7883845,93.40534237,-0.6406049
另,1,33,533.6969697,21.5672172,123.8942303,-0.5213148
溜,1,34,647.9705882,38.20659865,222.7808388,-0.0102048
流,1,35,577.9428571,23.24314095,137.5082763,-0.2884728
留,1,35,494.6285714,14.63150082,86.56112621,-0.6467666
刘,1,35,566.3714286,26.54636299,157.0504014,-0.4031266
柳,1,34,570.0294118,19.96545525,116.4176091,-0.327815
六,0.971428571,34,541.7058824,25.51583792,148.7816235,-0.4488629
隆,0.914285714,31,657.0967742,23.95476718,133.374499,0.06091891
胧,0.8,25,729.16,38.35130072,191.7565036,0.3291488
珑,0.942857143,31,634.4193548,27.67187828,154.0704978,-0.0615002
聋,1,35,603.6857143,25.00315178,147.9206408,-0.1833375
垄,0.971428571,33,649.3333333,23.37335583,134.2697068,0.04889095
拢,0.942857143,32,608.625,29.01820028,164.1517296,-0.1307212
楼,1,35,612.3714286,30.42202005,179.9790978,-0.1745765
陋,0.942857143,31,658.8064516,25.83734978,143.8562753,0.10314968
漏,1,35,529.5714286,21.59852492,127.7785966,-0.553659
芦,1,33,566.969697,23.81353085,136.7983198,-0.2850751
炉,0.942857143,33,622.7575758,26.091514,149.8843367,-0.0879166
虏,0.942857143,33,649.969697,32.40722436,186.1653306,0.01965627
鲁,0.971428571,33,685.3030303,32.3571887,185.8778976,0.19374219
掳,0.885714286,29,714.7931034,40.11649843,216.0339556,0.34048136
陆,1,35,547.2571429,21.34913231,126.30317,-0.4284847
赂,1,34,695.0882353,29.88299726,174.2463195,0.24552727
路,1,35,532.0857143,21.14215079,125.0786509,-0.4859382
录,1,34,529.4705882,12.48401725,72.79370406,-0.5050276
驴,1,35,537.3714286,17.96495588,106.2821123,-0.4527151
吕,0.257142857,8,726.375,76.78656353,217.1851991,0.66091964
侣,0.2,5,804.8,85.40046838,190.9612526,0.72300504
旅,1,35,550.6285714,21.89662825,129.5421997,-0.4376871
屡,0.914285714,30,683.4,33.78738798,185.0611455,0.22377208
履,0.971428571,33,635.4242424,20.83098609,119.6649046,-0.025915
律,1,35,574.6285714,24.02460523,142.1314813,-0.3318085
率,1,34,547.3823529,17.09614287,99.68678667,-0.3724429
绿,1,35,530.9142857,15.17851043,89.79727869,-0.5079236
峦,0.971428571,33,688.5151515,32.18201435,184.8715975,0.20354114
乱,1,34,591.2058824,20.58951931,120.0564967,-0.2178123
掠,0.971428571,33,663.6060606,36.59855777,210.2427079,0.0183391
略,1,35,653.4857143,36.43436303,215.5485985,0.00501599
仑,1,35,535.6285714,18.215013,107.7614702,-0.4888853
伦,1,34,617.3529412,29.78987262,173.7033142,-0.104979
沦,0.885714286,29,632.8275862,29.42921996,158.4811996,-0.0849337
轮,1,35,546.3714286,30.16690506,178.4698171,-0.4382376
论,1,34,583.1176471,21.71266602,126.6055111,-0.2734618
萝,1,35,582.6,22.79603386,134.863155,-0.2369335
罗,1,35,526.4285714,24.6297042,145.7112951,-0.5433647
络,0.971428571,32,580.5625,20.38158846,115.2956753,-0.2644343
落,1,35,525.6,15.30497804,90.54547119,-0.539849
骆,1,34,605.6470588,19.69793651,114.8577202,-0.1564102
妈,1,35,512.6571429,14.17447954,83.85735187,-0.5668296
吗,0.971428571,34,563.0882353,26.54906223,154.8063047,-0.3929905
埋,0.971428571,34,578.1176471,24.33327588,141.8861611,-0.2824227
买,0.942857143,33,508.1515152,25.3265088,145.4897164,-0.562381
脉,1,35,559.2285714,26.39197375,156.1370223,-0.4038433
卖,0.971428571,33,562.9393939,37.23250401,213.8844518,-0.4197014
迈,1,35,568.8857143,15.5559587,92.03029278,-0.289505
瞒,1,32,642.46875,31.33932345,177.281985,0.02931076
蛮,1,35,589.2857143,23.50528535,139.0591435,-0.217185
满,1,35,540.1142857,24.82963029,146.8940738,-0.4927397
慢,1,34,547.7941176,30.7599173,179.3595981,-0.4322108
漫,0.971428571,30,614.7,34.61546229,189.5966954,-0.185945
芒,1,35,558.3142857,32.05889463,189.6629784,-0.4432626
盲,0.971428571,34,617.8235294,27.22257473,158.7335237,-0.1189709
茫,1,35,543.8857143,15.88687802,93.98803786,-0.4670745
莽,0.914285714,29,653.9310345,23.10683748,124.434128,0.05015021
猫,0.942857143,33,538.6060606,20.85492545,119.8024257,-0.4513543
茅,1,35,588.0857143,34.80655718,205.9183692,-0.2898726
髦,0.657142857,18,753.3333333,59.39460375,251.9899625,0.4957589
茂,1,35,579.4857143,19.64963581,116.2488131,-0.3013169
冒,0.971428571,33,544.1212121,24.91667012,143.1353725,-0.4610262
帽,0.971428571,33,558.3636364,27.13112863,155.8564681,-0.3768847
貌,1,34,534.2941176,19.18637038,111.8748027,-0.5106265
么,0.971428571,33,626.0606061,27.40029928,157.4027357,-0.0483138
没,0.914285714,32,626.9375,27.73844345,156.9123317,-0.0773208
枚,1,35,658,27.87200638,164.8930134,0.0896968
玫,0.942857143,33,652.2424242,29.96175056,172.1171531,0.05034658
眉,0.971428571,34,542.7647059,16.923602,98.68070912,-0.420835
媒,1,35,527.0571429,17.56213186,103.8989732,-0.5243202
湄,0.628571429,20,800.5,64.02657754,286.3355595,0.62889825
霉,1,35,573.5142857,20.89712181,123.6290399,-0.3053465
每,0.971428571,34,477.4117647,22.57418421,131.6289822,-0.7784741
美,1,34,555.7941176,23.63133284,137.793165,-0.3794747
昧,0.657142857,17,749.2352941,45.13570465,186.0992777,0.55493438
媚,0.942857143,33,631.6666667,32.03577743,184.0315304,-0.0907143
寐,0.771428571,26,762.0384615,30.74538018,156.7712935,0.49405607
扪,0.714285714,20,762.3,45.38606904,202.9726712,0.51262018
们,0.942857143,32,565.8125,24.1758693,136.759369,-0.3487174
氓,0.828571429,28,697.5357143,30.89564626,163.4843932,0.26792809
梦,0.971428571,34,487.7647059,20.53066307,119.7133088,-0.7263386
盟,1,34,619.3529412,22.97246598,133.951344,-0.074628
朦,0.914285714,32,665.75,33.01349919,186.7525532,0.05246255
猛,0.971428571,34,533.9117647,19.54925985,113.9907938,-0.5306145
蒙,1,34,551.3235294,26.46181524,154.2975717,-0.3883073
懵,0.885714286,29,789.2413793,34.98161569,188.3817657,0.61357718
迷,1,34,509.5,21.75656313,126.861473,-0.616141
谜,0.971428571,31,622.9354839,21.74153824,121.0517618,-0.0801354
弥,0.942857143,32,629.53125,25.14710688,142.2535184,-0.0747836
靡,0.971428571,34,712.1470588,27.45500718,160.0888262,0.31753517
弭,0.6,20,710.25,27.69788848,123.868723,0.29853458
密,1,34,534.6470588,17.60488722,102.6532505,-0.4862866
觅,1,34,609.9411765,30.55018201,178.1366417,-0.1652933
蜜,1,35,567.3714286,25.05033876,148.1998027,-0.3418249
眠,0.942857143,33,586.4242424,22.46065711,129.0266519,-0.2422749
棉,1,33,578.7575758,35.21234369,202.2795143,-0.3411688
绵,1,35,545.2285714,18.10232752,107.0948139,-0.4077856
免,1,35,527.7714286,16.18859884,95.77304229,-0.5141147
娩,0.828571429,28,659,25.34022463,134.0878651,0.09019172
冕,0.771428571,24,714.125,38.94083735,190.7703633,0.35760172
苗,1,34,552.7058824,20.16489641,117.5805409,-0.4158593
秒,1,34,518.6176471,23.41530095,136.5334934,-0.5217116
藐,0.857142857,29,726.0344828,32.96701153,177.5327903,0.37637042
妙,1,35,570.8857143,27.68395377,163.7804792,-0.3340137
庙,1,34,582.3529412,20.14771132,117.4803355,-0.2788421
灭,1,35,553.9428571,24.93810634,147.5358267,-0.4023008
蔑,0.942857143,30,676.1666667,43.08281475,235.9742948,0.12213446
民,1,35,496.0571429,17.75126663,105.0179096,-0.6516409
敏,1,35,564.0571429,15.88424212,93.97244366,-0.3435319
闽,0.885714286,29,679.7586207,32.51239457,175.0846031,0.15701529
名,0.971428571,33,526.3030303,26.87021574,154.3576377,-0.5387493
明,1,35,523.2285714,24.30714131,143.8029873,-0.5702526
鸣,1,34,577.6470588,23.66115081,137.9670322,-0.305619
瞑,0.885714286,28,758.8928571,29.02541029,153.5880347,0.47165896
命,1,35,557.5142857,37.23530383,220.2870282,-0.4277532
谬,0.942857143,33,700.8484848,37.15391108,213.4329697,0.1916906
摩,1,35,552.9142857,21.88416301,129.4684544,-0.3737497
磨,0.971428571,34,541.2647059,14.14675494,82.48904751,-0.4594537
末,0.914285714,32,648.4375,25.07685515,141.8561146,0.06324148
陌,1,34,588.8529412,28.35153444,165.3164335,-0.2625272
莫,0.914285714,32,575.15625,28.27126339,159.9264164,-0.2816211
寞,0.942857143,32,578,18.85438684,106.6565183,-0.2529545
墨,1,34,554.2941176,13.86036356,80.81911318,-0.3666974
默,1,35,590.6571429,20.83456012,123.2589199,-0.2340754
某,0.971428571,34,566.9117647,24.09511632,140.4974642,-0.3743398
牡,1,35,625.9714286,23.69017403,140.1529597,-0.0848867
亩,0.971428571,33,603.8181818,32.67338524,187.6943084,-0.1903354
牧,1,35,585.3714286,19.26843047,113.993572,-0.2754256
募,1,31,640.4516129,21.84450615,121.6250629,-0.0254697
墓,0.971428571,34,615.9705882,26.61210389,155.1738976,-0.151548
睦,0.971428571,33,661.2121212,25.79224828,148.165186,0.09007909
慕,1,33,583.969697,25.1834363,144.6678275,-0.2876464
暮,0.971428571,34,620.2352941,14.17996495,82.68269352,-0.0847491
穆,0.971428571,34,620.5294118,29.42064572,171.5503699,-0.1588998
拿,1,35,547.4571429,26.9913258,159.6828369,-0.4703308
呐,0.914285714,31,625.1290323,33.9339251,188.9360989,-0.0684388
娜,0.971428571,33,633.3333333,15.9453177,91.59887645,-0.0213755
纳,0.971428571,31,641.1612903,28.59322037,159.2003134,0.03078188
捺,0.857142857,27,809,38.15379733,198.2529464,0.69509986
乃,1,35,579.6,17.08437785,101.0725424,-0.2599481
奶,1,35,539.0285714,18.88320964,111.7145748,-0.4753539
奈,1,35,537.4285714,23.38854441,138.3684947,-0.4715819
耐,0.971428571,34,584.7352941,17.76456791,103.5843409,-0.2827567
男,1,32,489.0625,13.24078632,74.90119836,-0.698084
南,1,35,492.3714286,18.2952483,108.2361486,-0.6695741
喃,0.885714286,29,678.7241379,37.622735,202.6046284,0.1578392
难,0.971428571,34,526.9411765,25.21967448,147.0547087,-0.5447535
囊,0.971428571,33,704.5151515,26.2207312,150.626633,0.30344499
挠,0.971428571,34,603.0294118,23.39003114,136.3861464,-0.1565153
恼,1,35,563.2285714,21.32990506,126.1894201,-0.3508615
脑,1,35,544.1428571,17.85742521,105.6459523,-0.4662283
闹,0.971428571,33,575.3030303,19.07597871,109.5831547,-0.2815972
馁,0.885714286,30,718.9,38.1,208.6822944,0.36374378
内,1,35,522.4,26.8179734,158.6572703,-0.5245075
嫩,0.971428571,34,577.2941176,19.63719639,114.5035475,-0.284771
能,1,35,527.5142857,20.56828641,121.6836234,-0.5161614
妮,0.942857143,32,620.1875,30.80366539,174.2518455,-0.1187455
尼,0.971428571,34,547,20.55816495,119.8736709,-0.433979
怩,0.228571429,7,875.8571429,88.08205822,233.043221,1.0814205
霓,0.971428571,32,709.71875,34.80085147,196.8633445,0.2122394
你,1,35,570.1714286,28.64366666,169.4582173,-0.330465
逆,1,34,628.6176471,30.82756408,179.7540432,-0.0950906
匿,0.914285714,32,690.09375,33.91540589,191.8545079,0.16470589
腻,0.914285714,32,646.90625,30.14432219,170.5220371,0.06504627
拈,0.885714286,29,719.0689655,39.69905047,213.7859295,0.29899215
年,0.971428571,34,507.6176471,20.41913815,119.0630123,-0.6084708
黏,0.942857143,33,636.6060606,18.98419096,109.0558743,0.01537933
廿,0.571428571,17,875.6470588,69.36958464,286.0181247,0.88678221
念,0.971428571,33,552.2121212,18.21711221,104.6493423,-0.4075349
娘,1,35,504.6285714,13.36690292,79.07966412,-0.6330116
酿,0.971428571,33,672.969697,30.63718789,175.9972452,0.11959476
尿,1,33,574.0606061,25.64286847,147.3070644,-0.2437411
捏,1,35,651.6285714,24.68824392,146.0576207,0.0641794
聂,0.971428571,33,641.3636364,30.74860856,176.6373082,-0.0099608
孽,0.885714286,30,756.4333333,33.01308286,180.8201017,0.45465623
蹑,0.914285714,28,740.3571429,45.02974368,238.2750067,0.39935304
您,1,33,532.2121212,16.68603558,95.8539767,-0.4948954
宁,0.971428571,33,587.1515152,26.30600523,151.116495,-0.2643984
凝,1,35,645.1714286,33.21765466,196.5182952,-0.0381077
扭,0.971428571,34,554.5294118,21.48507069,125.2784137,-0.3795132
钮,0.828571429,26,728.5,45.28987831,230.9339732,0.33869768
纽,0.971428571,33,682.6969697,35.51625441,204.0253484,0.17128564
农,1,33,503.3333333,14.50879218,83.3466656,-0.6100446
弄,0.971428571,34,584.1176471,32.82923908,191.4257138,-0.2946172
奴,0.971428571,34,619.3823529,22.05571517,128.6058142,-0.0793938
努,1,35,472,14.37925677,85.06883026,-0.7599982
虐,1,31,710.1612903,31.21452298,173.7951086,0.28362894
疟,0.457142857,16,848.0625,65.40587822,261.6235129,0.88741789
暖,1,35,723.6,37.49124716,221.8012094,0.3317527
挪,0.942857143,28,666.7142857,32.74338485,173.2617068,0.0599824
喏,0.714285714,23,773.3043478,39.01278977,187.098767,0.57978453
诺,1,35,561.2285714,16.09656186,95.2285442,-0.3591318
哦,1,35,534.5714286,20.83158904,123.2413428,-0.4848989
偶,0.971428571,33,581.4242424,27.3641282,157.1949487,-0.3228499
趴,0.914285714,30,568.1666667,24.26710007,132.9163811,-0.3648027
啪,0.914285714,30,666.2333333,22.8214299,124.9981195,0.16810992
葩,0.8,27,764.962963,28.86684636,149.9965337,0.56790032
耙,0.857142857,25,793.08,43.79638189,218.9819095,0.66096939
帕,0.971428571,34,605.9117647,30.97878544,180.6358077,-0.1113819
怕,1,34,510.6176471,14.22978065,82.97316642,-0.52531
徘,0.942857143,32,705.71875,35.42604275,200.3999605,0.22190724
排,0.942857143,33,621.969697,32.38085635,186.0138578,-0.1325634
牌,0.971428571,34,540.4117647,24.56847239,143.2575806,-0.4653717
派,1,33,640.2121212,31.20848022,179.2790697,-0.0359277
攀,1,35,641,22.15855773,131.0917954,-0.0238362
盘,1,35,561.0857143,20.55398186,121.5989966,-0.3496743
蹒,0.857142857,26,642.0384615,31.47421317,160.4876271,0.05571813
判,1,35,511.4285714,15.20682541,89.96479237,-0.5999722
叛,1,35,549.7428571,19.46741914,115.1708048,-0.4053582
盼,1,35,599.7714286,27.96053899,165.4167795,-0.1768454
畔,0.971428571,34,689.0882353,30.18175387,175.9883549,0.16552877
乓,0.685714286,19,880.8947368,61.22338996,266.8665698,0.9462823
滂,0.885714286,30,690.7,25.7286079,140.9213892,0.25530135
旁,1,35,544.1714286,21.78182442,128.8630111,-0.4280172
螃,0.914285714,30,672.5,37.85078842,207.3173064,0.1342402
庞,1,35,556.7142857,20.54221198,121.529365,-0.3814367
胖,1,35,526.0857143,17.14384871,101.4243768,-0.5476451
拋,0.971428571,33,638.8484848,17.49232089,100.4857332,-0.0010151
刨,0.942857143,33,677.3939394,37.58122364,215.8876935,0.12664638
咆,0.971428571,32,590.625,24.45744947,138.352227,-0.2580317
炮,1,35,557.7142857,27.92774505,165.2227679,-0.4014727
袍,0.942857143,31,659.1612903,35.32445912,196.6782646,0.07975597
泡,1,34,592.2941176,37.68375134,219.7321413,-0.3092478
赔,1,33,554.1515152,21.39607198,122.9110759,-0.3963526
佩,0.971428571,31,551.4193548,27.50127169,153.1206004,-0.3590806
配,0.914285714,31,601.7741935,22.02665588,122.6392296,-0.140282
朋,0.971428571,34,543.4411765,29.59489379,172.566402,-0.4732944
彭,0.971428571,33,576.1515152,17.37559249,99.81517959,-0.2793244
棚,0.885714286,29,666.3448276,31.29504737,168.5289877,0.14395265
澎,0.971428571,34,697.7352941,32.80494693,191.2840675,0.23037281
捧,0.971428571,33,555.1212121,11.72141571,67.33440687,-0.3821534
碰,0.971428571,34,583.4411765,23.00523815,134.142437,-0.286816
批,1,34,656.7941176,37.40244064,218.0918321,0.02414487
披,0.942857143,32,700.4375,33.56622419,189.8792379,0.26981949
匹,1,34,535.5,19.21263186,112.0279321,-0.4944923
癖,0.942857143,32,691.75,32.01861228,181.1246229,0.20409905
僻,1,35,657.4285714,24.77940612,146.5969436,0.04001837
譬,0.942857143,30,707.4,29.6093182,162.1769149,0.3184799
偏,0.971428571,32,610.125,33.88663352,191.6917468,-0.1590407
篇,0.971428571,34,552.4117647,20.79190323,121.2365875,-0.4303534
翩,1,33,625.4242424,32.28856135,185.4836634,-0.1174814
胼,0.542857143,18,917.5555556,50.77878605,215.4361437,1.0723829
骗,1,34,576.5,27.71764466,161.6202526,-0.3101442
飘,1,35,541.6571429,15.24516415,90.19160743,-0.442852
票,1,33,557.1212121,24.75569102,142.2106179,-0.3584041
嫖,0.914285714,31,652.516129,17.8580346,99.42932866,0.09504438
撇,0.971428571,33,685.8181818,24.88570291,142.9574794,0.17535694
瞥,0.971428571,33,678.2121212,28.25894058,162.3352545,0.11619963
拼,0.971428571,34,551.2352941,17.32467864,101.0193677,-0.3791175
贫,1,34,556.4411765,28.03207328,163.4536708,-0.427541
频,1,35,611.3428571,25.87331589,153.0686011,-0.1745091
品,1,34,540.2352941,29.28354404,170.7509366,-0.4790053
乒,0.914285714,29,615.6551724,31.71413555,170.7858467,-0.0932478
平,0.971428571,33,477.2424242,11.12787504,63.92477527,-0.7750969
坪,0.914285714,28,732.9642857,34.45123392,182.2987946,0.41888043
苹,1,35,579.1142857,27.59529772,163.2559829,-0.2744561
屏,0.914285714,31,582.6451613,19.77614227,110.1089002,-0.2656804
瓶,1,35,504.2285714,20.30941685,120.1521305,-0.5950668
评,0.971428571,34,548.4705882,23.18814911,135.208982,-0.4299098
凭,0.971428571,34,586.5294118,20.65945918,120.4643127,-0.2453927
泼,1,35,554.5428571,14.9725431,88.57875952,-0.3813154
迫,1,35,551.1714286,25.51547514,150.9515867,-0.3559685
破,0.971428571,34,509.9117647,17.96696154,104.7644884,-0.6037683
魄,0.914285714,28,715.9285714,40.79559087,215.8699761,0.28630724
扑,0.971428571,33,565.6666667,20.65351182,118.6453925,-0.3091867
铺,0.971428571,32,600.21875,28.58828059,161.7197365,-0.2425933
葡,0.971428571,33,599.6060606,26.99242105,155.0596537,-0.2078004
朴,0.971428571,34,643.4705882,26.74532412,155.9506984,0.00438298
圃,0.742857143,25,818.96,38.73252208,193.6626104,0.77472933
普,1,34,599.7058824,32.39318191,188.8830854,-0.2192532
瀑,0.971428571,32,666.21875,36.01790925,203.748063,0.0759323
曝,0.971428571,32,622.625,23.24170638,131.4749455,-0.1297376
七,0.942857143,32,584.09375,16.66555261,94.27460212,-0.2220828
妻,1,35,573.4285714,22.26250138,131.7067343,-0.3173751
戚,0.971428571,32,669.65625,30.12609954,170.4189542,0.10537223
凄,0.971428571,34,600.1176471,26.57246389,154.9427587,-0.2460853
期,1,35,552.5428571,20.65964047,122.2240813,-0.386597
栖,1,35,637.9714286,28.65642567,169.5337006,-0.0476855
漆,1,34,536.8823529,15.70197966,91.55748805,-0.453855
其,1,35,517.3714286,20.70286327,122.4797908,-0.5583208
奇,1,34,491.8235294,18.62858051,108.6223568,-0.6724055
歧,1,34,670.8823529,24.37510509,142.1300652,0.16884319
琦,0.971428571,34,628.4705882,37.48675905,218.5834887,-0.0903235
旗,0.971428571,33,630.3333333,35.9907834,206.75131,-0.085522
骑,1,35,517.2571429,31.38498659,185.6760846,-0.5909449
乞,1,34,602.0294118,26.20566829,152.8039912,-0.1487815
企,1,34,542.3235294,15.81210533,92.19962551,-0.4438002
岂,0.942857143,32,625.34375,25.42757779,143.8401015,-0.0340108
起,1,35,551.0285714,22.92283313,135.6133096,-0.3858074
启,1,32,527.1875,18.70011846,105.7838446,-0.5325939
绮,0.971428571,33,611.7878788,21.63946825,124.309281,-0.1310937
汽,0.971428571,34,570.9411765,22.27977753,129.912311,-0.3371052
砌,1,34,650.4705882,27.24904078,158.887846,0.03337136
弃,1,35,513.2,14.47871808,85.65725133,-0.5831676
葺,0.542857143,15,884.7333333,66.19189036,256.360089,0.84294223
器,1,34,571.5882353,37.78646066,220.3310344,-0.3402577
憩,0.971428571,33,721.3636364,22.65074996,130.1186521,0.3933569
恰,1,35,571.5142857,22.32707109,132.0887339,-0.3172948
洽,0.971428571,34,612.9117647,34.20514205,199.4485379,-0.1896481
千,0.914285714,32,564.875,14.09878384,79.75476525,-0.3529757
阡,0.771428571,26,758.5769231,40.86503765,208.3716244,0.49634062
牵,1,34,538,20.38995943,118.8928726,-0.4708423
迁,1,35,571.5142857,17.02209989,100.704101,-0.3577604
签,0.971428571,33,561.9090909,29.59711684,170.0224918,-0.4086517
前,0.971428571,33,467.0606061,14.92030213,85.71061027,-0.7995156
虔,0.885714286,30,635.6,35.60326086,195.0070909,-0.0252071
钱,0.971428571,33,555.8181818,26.01607365,149.4509649,-0.4146075
遣,0.971428571,32,700.90625,39.0955034,221.1575645,0.19359189
谴,0.971428571,34,699.5,30.07039424,175.3390223,0.25371093
腔,1,33,583.8484848,28.30054212,162.5742371,-0.2744474
枪,0.942857143,32,599.25,33.32970074,188.5412593,-0.2718566
锵,0.914285714,31,727.483871,25.46331415,141.7737331,0.37403918
强,1,35,550.6,25.02641294,148.0582556,-0.4382307
墙,1,35,530.6857143,19.96588567,118.1197726,-0.5006252
抢,1,35,496.2,15.41862892,91.21783881,-0.6570463
敲,1,35,554.2857143,19.87120595,117.5596398,-0.3620253
跷,0.971428571,34,593.7352941,26.30031241,153.3558565,-0.2176719
乔,1,35,548.1142857,27.55982862,163.0461449,-0.4584359
侨,1,34,675.9411765,34.69487423,202.3041426,0.1254116
樵,0.857142857,26,770.9230769,42.74924824,217.979251,0.50900126
桥,1,34,565.4117647,25.77615549,150.2995227,-0.3798748
巧,1,34,533.5,28.04755479,163.5439428,-0.496396
窍,1,35,568.9714286,20.09529757,118.8853837,-0.3230066
翘,1,34,564.6764706,22.69740971,132.3475041,-0.3117064
切,0.971428571,33,568.4848485,28.35239292,162.8720973,-0.3654526
且,0.971428571,34,560.3235294,21.4164513,124.8782973,-0.3324862
怯,0.885714286,31,729.2903226,39.42683965,219.5193528,0.37784436
箧,0.542857143,16,786.4375,48.97031148,195.8812459,0.78189873
侵,1,35,595.4285714,25.6598069,151.8054649,-0.2266766
亲,1,35,489.9714286,19.72983433,116.723274,-0.7147098
秦,1,35,602.1428571,30.67224796,181.459466,-0.2010116
琴,1,35,512.2,19.3326823,114.3736909,-0.5998976
勤,0.971428571,34,548.7058824,11.9468915,69.66174961,-0.3969806
擒,0.885714286,31,696.1290323,39.52611066,220.0720703,0.19027687
寝,1,32,627.40625,21.82273061,123.4480064,-0.0463196
卿,1,34,629.5882353,26.63191087,155.2893912,-0.1007717
清,0.885714286,29,622.6206897,30.02352993,161.6816567,-0.1262761
倾,0.942857143,32,609.28125,19.27115691,109.0141259,-0.1472906
轻,1,35,521.2285714,21.03590711,124.4501047,-0.5656573
情,0.942857143,32,617.65625,31.69259509,179.2803912,-0.1094533
晴,0.971428571,33,550.8787879,18.93028266,108.7461946,-0.3792726
擎,0.971428571,31,695.9677419,33.72021135,187.7461911,0.2225487
庆,0.828571429,29,592.2758621,30.61379066,164.8603081,-0.21014
穷,1,35,522.7714286,21.50485916,127.2244625,-0.5260389
琼,0.942857143,32,637.3125,27.75927764,157.0301877,-0.0097328
丘,0.971428571,33,525.6969697,17.73422714,101.8753788,-0.5395657
秋,1,35,509.3714286,19.08931179,112.9338916,-0.6209392
蚯,0.971428571,32,724.96875,37.41774539,211.666732,0.27856786
求,1,34,527.5588235,24.81766632,144.7106185,-0.5378905
球,1,34,491.0882353,11.3535288,66.20188025,-0.6752561
曲,1,35,498.1142857,21.42251119,126.7372853,-0.6687031
屈,1,33,587.030303,32.64615983,187.5379103,-0.2644093
区,0.971428571,33,578.5454545,22.28262381,128.0039284,-0.2954555
趋,0.971428571,34,566.5882353,11.4470896,66.7474288,-0.3216601
躯,1,34,575.2058824,32.28451888,188.2494765,-0.3253615
取,0.971428571,34,527.1470588,16.98448135,99.0356937,-0.5264053
娶,1,32,603.25,31.7779595,179.7632852,-0.2239018
去,1,35,571.9714286,20.01837331,118.4302936,-0.3167636
觑,0.857142857,29,783.2068966,35.73597694,192.4441253,0.61354486
全,0.971428571,32,544.875,19.07966903,107.9309068,-0.4227884
泉,1,35,571.1142857,26.0700985,154.2327827,-0.361133
拳,1,35,568.3428571,19.85793844,117.4811481,-0.3088353
痊,0.885714286,28,786.5714286,46.52866297,246.2065421,0.59697302
权,1,35,546.8571429,15.65334248,92.60642299,-0.4202562
劝,1,34,566.1764706,27.27242477,159.0241969,-0.3676983
缺,1,35,571.6285714,24.04446461,142.248971,-0.3085297
却,1,35,573.2571429,23.56611807,139.4190347,-0.3323883
雀,1,34,514.1764706,16.9782009,98.99907272,-0.5859366
确,0.942857143,33,582.1818182,27.01260419,155.175597,-0.30368
鹊,0.971428571,33,646.3939394,34.02135413,195.4378001,-0.0557809
裙,0.885714286,29,664.9655172,37.19097574,200.2795337,0.08650123
群,0.971428571,33,536.5454545,24.78491152,142.3784769,-0.5067117
然,0.942857143,33,599.1818182,31.71542661,182.191255,-0.2004059
燃,0.885714286,30,623.6666667,30.52153313,167.1733219,-0.1073847
冉,0.942857143,32,651.625,24.82684998,140.4418718,0.02892619
染,1,32,576.25,22.94106228,129.7742457,-0.2504742
嚷,1,34,607.3823529,19.80232142,115.4663836,-0.1509281
壤,1,35,697.0285714,27.11635327,160.4225094,0.22193172
让,1,35,515.4,19.13864496,113.2257506,-0.5706397
扰,0.971428571,33,580.2727273,17.35962491,99.72345284,-0.297613
绕,0.971428571,34,554.7647059,15.65925369,91.30835496,-0.4003482
惹,1,32,589.90625,25.33956327,143.3422161,-0.2674718
热,1,35,511.8571429,27.90596885,165.0939381,-0.6316048
仁,1,32,567.9375,25.13190755,142.167538,-0.3671848
忍,1,34,554.0882353,25.2081307,146.9873974,-0.4279429
刃,0.914285714,29,688.7931034,32.63744636,175.7580275,0.20741538
任,1,34,573.9411765,16.64320672,97.04573779,-0.2946577
韧,0.885714286,29,705.4137931,24.134757,129.969644,0.2269923
认,1,35,586.3428571,19.14175088,113.2441254,-0.2293118
扔,1,35,477.9714286,8.380598414,49.58028885,-0.7305242
仍,1,35,544.2857143,24.87935837,147.1882691,-0.4611556
戎,0.914285714,27,696.8888889,40.40014715,209.9253225,0.22839649
容,1,35,515.3428571,17.3809972,102.8273661,-0.5813381
溶,0.914285714,31,564.1290323,29.57955346,164.6919836,-0.3134912
蓉,1,34,628.3823529,25.36907653,147.9258649,-0.0374282
荣,1,34,581.1470588,15.89269568,92.669544,-0.2477059
柔,1,35,550.7714286,28.89122125,170.9227699,-0.4160122
揉,0.971428571,32,570.09375,26.30077115,148.7796291,-0.3313374
蹂,0.914285714,31,632.9677419,25.03023908,139.3624732,-0.0232996
如,1,34,491.7058824,20.6860726,120.6194942,-0.6540406
儒,0.971428571,34,629.4705882,30.00645312,174.9661847,-0.107905
孺,0.914285714,32,680.78125,25.65680498,145.1368063,0.21046552
濡,0.771428571,25,716.44,35.30401677,176.5200838,0.31241076
蠕,0.885714286,28,646.3214286,25.764658,136.3337554,-0.0453772
乳,1,35,533.5428571,16.83500469,99.5972309,-0.503596
辱,1,34,608.0588235,28.71104867,167.4127437,-0.1114015
软,1,35,586.8,22.00327707,130.1731426,-0.2472756
蕊,0.914285714,31,717.3870968,34.8369683,193.9640306,0.37623997
瑞,0.971428571,34,551.9117647,19.36092909,112.8926461,-0.4006973
若,0.942857143,33,542.2424242,23.12363961,132.8351964,-0.4182684
弱,1,35,522.9142857,13.24661818,78.36805,-0.5433523
撒,0.942857143,32,652.625,43.7941655,247.7372112,-0.0586008
洒,0.914285714,30,610.8,35.12314625,192.3773949,-0.1460231
萨,1,34,587.5,26.81557965,156.360355,-0.2267999
塞,0.971428571,34,547.1470588,23.05419223,134.4278859,-0.4387479
腮,0.771428571,23,738.826087,37.18380009,178.3272406,0.45560323
赛,1,34,590.4705882,31.26809595,182.3227633,-0.2862636
三,1,34,547.6764706,20.47901063,119.4121258,-0.4251988
伞,1,33,544.3030303,19.07012005,109.5494993,-0.4819664
散,1,35,513.6,14.66867697,86.78106326,-0.5049827
嗓,0.8,28,650.3571429,28.68623429,151.793284,0.01900223
丧,1,35,554.2857143,24.6057509,145.5695854,-0.3821758
搔,0.914285714,29,708.5517241,39.13160145,210.730123,0.26206151
骚,0.971428571,34,662.7647059,31.28897737,182.4445219,0.02923093
扫,0.971428571,34,501.7941176,21.68728401,126.4575098,-0.6688784
啬,0.885714286,30,683,47.13297403,258.1579308,0.12631429
瑟,0.971428571,32,602.375,18.5985686,105.2093918,-0.1538471
涩,1,34,571.9411765,17.18909933,100.2288113,-0.3191389
森,1,35,552.2285714,24.65799973,145.8786937,-0.4334445
沙,0.971428571,34,493.3529412,16.55622314,96.5385407,-0.669692
砂,0.942857143,33,681.4545455,26.40804124,151.7026472,0.16696189
杀,1,35,486,16.39076395,96.96906723,-0.7081735
纱,0.971428571,34,552.4411765,21.86281124,127.4810006,-0.4164662
傻,1,33,525.6969697,24.46396875,140.534801,-0.5360546
煞,1,35,571.2571429,18.36050487,108.6222117,-0.2859831
霎,0.628571429,20,693.45,42.80312796,191.4214075,0.27664624
晒,0.971428571,34,725.1470588,37.54678917,218.9335214,0.28174156
删,0.971428571,34,559.1764706,20.90840182,121.9158852,-0.4030909
衫,0.971428571,32,558.28125,19.87624181,112.437003,-0.380338
珊,0.942857143,32,689.125,33.55648674,189.8241546,0.19040528
煽,1,35,649.3428571,28.66608522,169.5908472,0.05014188
闪,1,35,491.2,10.45243729,61.83745296,-0.6729828
扇,1,35,515.5714286,17.8478295,105.5891833,-0.5312105
善,1,35,541.6,26.88647781,159.0625478,-0.4913371
擅,0.971428571,33,676.0606061,35.50904013,203.9839055,0.08596585
膳,0.942857143,32,656.5625,23.54666512,133.2000527,0.03381548
裳,0.942857143,32,664.59375,37.00266608,209.3186889,0.08860734
晌,0.914285714,32,672.65625,42.44803772,240.1223625,0.07976824
赏,1,35,534.8571429,17.13564975,101.375871,-0.4805272
上,0.971428571,33,590.030303,33.9671322,195.1263188,-0.3246902
尚,1,35,562.6,29.5311031,174.708362,-0.3458914
稍,0.971428571,33,569.1212121,30.44172144,174.8743759,-0.3265898
勺,1,35,558.2285714,20.69108872,122.4101317,-0.3895999
少,1,33,598.7575758,29.95511258,172.0790208,-0.1832567
劭,0.4,11,840.4545455,66.69978379,221.2181564,0.90662226
绍,0.942857143,33,615,26.79849046,153.9456073,-0.1479819
蛇,1,32,629.0625,29.96375288,169.5005828,-0.0452251
舍,1,34,522.0882353,21.75959917,126.879176,-0.5645896
社,1,35,547.6,15.94798267,94.34953786,-0.4356478
射,1,35,522.2,20.48306536,121.1794488,-0.5737673
涉,0.942857143,33,610.969697,26.05986279,149.7025144,-0.1502348
设,0.942857143,30,593.9666667,24.12203092,132.1218047,-0.2418884
赦,0.971428571,32,661.3125,34.03856439,192.5511976,0.04055697
慑,0.914285714,30,661.2,34.07137201,186.6165902,0.11405413
摄,0.942857143,33,632.6666667,32.9644743,189.3664877,-0.1191838
伸,0.971428571,33,572.8484848,34.29777472,197.0257155,-0.3337871
呻,0.771428571,26,681.5769231,33.61364984,171.3966565,0.10158666
深,1,35,558.6571429,25.7252759,152.1927846,-0.3455311
神,0.971428571,33,620.0909091,28.69158636,164.8206153,-0.1212579
审,1,35,557.0857143,18.12312564,107.2178572,-0.3798413
婶,0.971428571,34,572.5294118,23.29027994,135.8045019,-0.3166789
甚,1,35,568.9714286,26.74132187,158.2037937,-0.3210479
肾,1,35,609.6571429,21.79537931,128.9432029,-0.1388103
慎,1,34,572.0294118,23.2042195,135.3026877,-0.3337806
渗,0.857142857,28,742.1785714,47.19398933,249.7271183,0.34585324
升,1,35,508.1714286,23.20657998,137.2919786,-0.6021479
牲,1,32,684.8125,31.97376185,180.8709106,0.2054094
声,1,35,515.2,18.91497117,111.9024786,-0.5887289
绳,1,35,601.1428571,37.50816478,221.9012953,-0.2328292
省,1,35,525.9428571,35.10842612,207.70425,-0.5663134
剩,1,33,538.9393939,20.76117531,119.2638722,-0.4167725
圣,1,35,523.2,19.00640317,112.4433975,-0.5270751
失,0.942857143,32,537.625,22.12910022,125.1810946,-0.4613913
施,1,34,497.5294118,13.25219756,77.2729265,-0.6746981
师,1,35,490.4571429,14.83303959,87.75344567,-0.6864767
湿,0.971428571,31,575.9354839,27.23383156,151.6315568,-0.3249157
什,1,34,578.4117647,21.46211343,125.144551,-0.2755169
拾,1,35,586.7142857,24.3721694,144.1876986,-0.255762
时,0.742857143,25,667.96,34.33207829,171.6603915,0.13846333
实,0.942857143,33,514.2727273,15.61257219,89.68739903,-0.5714991
蚀,0.971428571,34,592.8235294,26.80591331,156.303991,-0.2542208
史,1,34,543.9117647,35.62123402,207.705702,-0.5141125
使,1,34,525,21.23898477,123.8434985,-0.5330354
始,0.914285714,31,587.4193548,30.05946702,167.3640292,-0.2811462
驶,1,35,570.6571429,23.34987603,138.1397295,-0.3308515
世,1,35,561.1428571,30.04327811,177.7384302,-0.3795683
市,1,35,505.2,17.99209911,106.4426938,-0.6599233
式,1,35,618.7142857,32.95508967,194.9649397,-0.1631312
事,1,35,536.1142857,26.74767787,158.2413963,-0.4781303
侍,1,35,627.8571429,34.05680235,201.4827599,-0.0708668
室,0.942857143,33,568.2727273,18.18956748,104.4911099,-0.2834527
是,1,35,500.3714286,15.16464739,89.71526387,-0.6240763
逝,1,34,580.7647059,23.36363167,136.2322124,-0.2933898
视,0.971428571,33,530.9090909,16.28006331,93.52184358,-0.5209109
势,1,34,550.4705882,18.07664585,105.4040524,-0.4171125
嗜,0.857142857,26,760.8076923,44.8646861,228.7659099,0.55662145
誓,1,33,594.6363636,20.57031631,118.1674707,-0.1998374
噬,0.828571429,25,721,31.32650635,156.6325317,0.37459218
释,1,32,616.75,35.4006447,200.2562874,-0.1480615
收,1,35,540.2,20.56450397,121.6612462,-0.4695109
守,1,34,523.5,24.23265317,141.2994349,-0.5515823
受,0.971428571,34,566,29.47375642,171.8600558,-0.4268427
狩,0.971428571,34,720.1470588,32.63939344,190.318733,0.36885944
授,1,35,565.1714286,16.81408402,99.47346253,-0.3259523
寿,1,35,557.7714286,18.61539463,110.1301598,-0.393963
瘦,0.971428571,34,557.1176471,20.52318218,119.669688,-0.3643912
兽,1,34,523.4117647,17.24439601,100.5512436,-0.5148386
抒,0.885714286,29,730.5172414,33.72595369,181.6198189,0.31499212
叔,1,35,554.1714286,16.37678649,96.88637545,-0.4224309
书,1,35,507.8857143,18.24519144,107.9400082,-0.5824227
殊,0.971428571,33,554.1212121,18.88590933,108.4912893,-0.368835
疏,1,34,566.8529412,18.16713514,105.9316911,-0.3288646
舒,1,34,531.7647059,16.52417118,96.35164725,-0.4762643
枢,0.857142857,29,746.1034483,28.11816835,151.4209706,0.41086956
输,1,35,526.4857143,12.31446314,72.85334642,-0.4956766
孰,1,33,696.4545455,33.85323971,194.4720563,0.170004
熟,1,33,572.2727273,22.85159934,131.272444,-0.2940952
赎,1,35,667.3428571,29.95455782,177.2135539,0.10565882
暑,1,34,539.7352941,26.89705432,156.8354298,-0.4763758
署,0.942857143,30,610.4,27.57862741,151.0543634,-0.1612646
薯,1,32,618.03125,28.11757014,159.0569961,-0.0835017
曙,0.857142857,26,698.5769231,43.56060934,222.1163971,0.26719046
束,1,35,495.7714286,12.22850271,72.34479766,-0.6532938
恕,1,35,554.3714286,15.12991837,89.50980417,-0.402764
庶,1,34,566.0588235,21.8084736,127.1641605,-0.3657579
墅,1,34,646.3823529,22.76431264,132.7376119,0.03110457
漱,1,35,653.2571429,32.48760185,192.1992445,0.00609349
数,1,35,645.7142857,31.03845734,183.62599,-0.0049232
竖,1,35,594.9714286,31.93360985,188.9217836,-0.233151
树,0.971428571,34,519.9411765,18.73794044,109.2600293,-0.561021
耍,0.971428571,34,569.2647059,28.93508959,168.7191155,-0.3623809
衰,0.971428571,34,556.8529412,16.79684273,97.94158196,-0.3766594
摔,1,35,575.8285714,22.91564677,135.5707946,-0.3011172
帅,1,35,481.4857143,18.82129008,111.3482538,-0.7491332
霜,0.971428571,34,546.8235294,17.24115783,100.5323619,-0.3983765
双,1,35,537.0857143,28.07787404,166.110943,-0.5132193
爽,1,35,533.6285714,15.21587438,90.0183268,-0.4950469
睡,1,34,566.9705882,16.19629396,94.43981097,-0.3245759
吮,0.942857143,31,705.0322581,33.82696271,188.3405575,0.24675854
顺,1,35,514.0571429,16.54563046,97.88526983,-0.5871264
说,0.942857143,32,559.28125,22.64800044,128.1164376,-0.3786463
朔,1,35,616.7142857,25.25688429,149.4217425,-0.0766161
硕,1,34,622.3529412,24.68673182,143.9471457,-0.1493403
烁,0.971428571,33,672.8787879,34.78262469,199.8109665,0.0858169
司,1,34,517.4411765,17.49322207,102.0021364,-0.5732216
思,1,34,527.4705882,27.01314248,157.5123343,-0.5262731
斯,0.971428571,34,554.6470588,17.9640601,104.7475703,-0.3842352
丝,1,35,496.8571429,19.35493956,114.5053666,-0.6364507
嘶,0.942857143,32,738.1875,47.34029684,267.7971593,0.36088235
撕,1,33,645,39.26425624,225.5559797,-0.0446727
死,1,33,546.3636364,34.98148369,200.9533245,-0.4500931
四,1,35,521.8571429,20.45191708,120.9951732,-0.4917729
寺,0.971428571,33,558.7878788,20.23277221,116.2284275,-0.3773083
似,1,34,569.8235294,18.4382416,107.5124998,-0.3187596
祀,0.6,20,790.3,29.66977019,132.687246,0.71208072
泗,0.485714286,12,981.1666667,68.77145212,238.2312984,1.7166983
嗣,0.8,28,775.4642857,24.78465358,131.1480594,0.64975166
松,1,34,539.7058824,18.96231977,110.5683744,-0.4590571
宋,0.971428571,34,556.8235294,16.22493793,94.60683254,-0.379202
送,0.971428571,34,496.8529412,13.9073284,81.09296287,-0.6507596
讼,0.8,25,666.28,30.15490673,150.7745337,0.15261427
诵,0.914285714,31,682.6774194,35.45724025,197.4175587,0.15768851
搜,0.942857143,33,617.969697,23.60347484,135.5916399,-0.0813382
擞,0.428571429,13,808,67.46062479,243.2327418,0.68871627
俗,1,35,570.4,22.93685889,135.6962872,-0.353859
素,1,35,581.2,22.86201944,135.253531,-0.3002249
速,1,35,553.7714286,31.3622126,185.5413519,-0.4726248
宿,0.971428571,34,608.6764706,30.38316568,177.1627775,-0.1297475
诉,0.971428571,34,586.7647059,26.24541582,153.0357571,-0.3143366
溯,0.971428571,32,685.3125,26.05489852,147.3887634,0.2070491
